green,red,IR,acc_x,acc_y,acc_z,sample_index
83047,195375,206703,8.0817583315,-4.42672181,3.0616165167,1
82736,195216,206637,8.1224363157,-4.2747775749,3.0161528873,2
82606,195099,206647,8.1547394208,-4.3130627365,2.8642086522,3
82679,195065,206633,8.0925260332,-4.4901316089,2.9587251449000003,4
82876,195065,206603,8.1140614366,-4.3812581806,2.9718856692,5
83078,195092,206638,8.183453292,-4.4793639072,3.0125636533999995,6
83248,195125,206650,8.262416437799999,-4.4721854394000005,2.9359933301999996,7
83342,195122,206723,8.1918281711,-4.3633120111,3.0017959517,8
83474,195188,206744,7.969295669299999,-4.3334017286,2.9575287336000002,9
83589,195209,206748,8.0925260332,-4.4075792292,3.0329026454999997,10
83748,195222,206757,8.1140614366,-4.3573299546,3.0424739359,11
83943,195268,206778,8.0470624038,-4.3884366484,2.9838497821999996,12
84155,195327,206825,8.1439717191,-4.3812581806,3.0233313551,13
84379,195376,206858,8.183453292,-4.3345981399,2.9276184511,14
84551,195483,206886,7.998009540499999,-4.4243289874,2.9503502657999996,15
84827,195521,206959,8.1451681304,-4.4542392699,2.9647072014,16
85018,195600,206983,8.1918281711,-4.3334017286,2.9934210726,17
85191,195644,207026,8.2109707519,-4.5092741897,3.0699913958000002,18
84965,195650,207034,8.049455226400001,-4.3298124947,2.9072794589999997,19
84347,195453,206970,8.1619178886,-4.4195433422,2.9611179675,20
83799,195213,206855,8.128418372199999,-4.3381873738,3.0903303879,21
83476,195057,206739,8.061419339399999,-4.5068813671,2.9694928465999997,22
83352,194950,206743,8.1870425259,-4.4434715682,3.0029923629999997,23
83384,194901,206691,8.1882389372,-4.4841495524,2.9264220398,24
83545,194905,206682,8.0135628874,-4.3920258823,3.0376882907,25
83755,194947,206739,8.1535430095,-4.3609191885,3.0221349438,26
83937,194979,206761,8.0805619202,-4.3286160834,2.9575287336000002,27
84029,195055,206768,8.1212399044,-4.4398823343,2.9766713144,28
84213,195035,206801,8.1212399044,-4.4075792292,2.9862426048,29
84350,195070,206834,8.0650085733,-4.3369909625,2.9647072014,30
84487,195122,206852,8.1200434931,-4.414757697,2.919243572,31
84661,195148,206876,8.1104722027,-4.3645084224,3.0101708308,32
84856,195222,206920,8.1044901462,-4.353740720699999,3.0221349438,33
85051,195277,206945,8.0470624038,-4.5140598349,3.0352954681,34
85241,195328,207000,8.1583286547,-4.295116567,2.979064137,35
85454,195409,207049,8.1918281711,-4.2855452766,2.9754749031,36
85663,195472,207071,8.249255913499999,-4.3286160834,2.9395825641,37
85876,195570,207101,8.0542408716,-4.3752761241,2.9802605483,38
86039,195580,207175,8.0685978072,-4.415954108299999,3.0101708308,39
86051,195642,207232,8.0733834524,-4.4207397534999995,2.9288148624,40
85635,195519,207158,8.027919823,-4.4721854394000005,2.8809584104000003,41
85086,195348,207104,8.102097323599999,-4.4697926167999995,2.9874390161,42
84866,195195,207023,8.1499537756,-4.2640098732,3.0556344602,43
84711,195076,206937,8.0183485326,-4.4219361648,2.9742784918,44
84722,195032,206932,8.0422767586,-4.4602213264,2.9814569596,45
84819,194994,206898,8.1631142999,-4.4327038665,2.8953153460000003,46
84986,195085,206971,8.1535430095,-4.4135612857,2.9694928465999997,47
85135,195117,206942,8.1906317598,-4.4051864066,2.9216363945999997,48
85227,195150,206999,8.0853475654,-4.342973019,2.9647072014,49
85303,195181,207038,8.170292767700001,-4.415954108299999,2.9527430884,50
85399,195179,207051,8.0805619202,-4.2460637037,3.0317062341999996,51
85474,195236,207012,8.1499537756,-4.3920258823,2.9264220398,52
85631,195243,207021,8.0566336942,-4.4015971727,3.0843483314,53
85774,195276,207080,8.1272219609,-4.3166519704,3.1238299043,54
85911,195333,207083,8.0374911134,-4.402793583999999,2.9778677257000004,55
86098,195404,207129,8.0973116784,-4.4721854394000005,3.0448667585,56
86274,195420,207191,8.2025958728,-4.4219361648,3.0783662749,57
86443,195513,207220,8.0650085733,-4.3046878574,2.9862426048,58
86578,195604,207272,8.1403824852,-4.295116567,3.0364918793999998,59
86386,195528,207253,8.0087772422,-4.42672181,2.8737799425999997,60
85889,195392,207201,8.0470624038,-4.4219361648,2.9635107901000004,61
85378,195174,207111,8.1188470818,-4.3082770913,3.1046873235,62
85020,195003,207008,8.2013994615,-4.4781674959,2.9228328059,63
84827,194918,206943,8.074579863699999,-4.3501514868,3.0245277664,64
84771,194885,206917,8.0207413552,-4.4542392699,2.9599215562,65
84864,194856,206912,8.1619178886,-4.4004007614,2.9647072014,66
84972,194872,206944,8.123632727,-4.5355952383,3.014956476,67
85052,194924,206950,8.0961152671,-4.5236311253,3.1118657913,68
85084,194924,206929,8.075776275,-4.3465622529,3.0137600647,69
85119,194918,206972,8.1870425259,-4.4638105603,2.9551359109999997,70
85194,194968,206972,8.111668614,-4.4697926167999995,3.0005995404,71
85283,194945,206963,8.2097743406,-4.3896330597,3.0376882907,72
85403,194991,207025,8.0362947021,-4.3704904789,3.0005995404,73
85532,195041,207049,8.1571322434,-4.5020957219,2.9503502657999996,74
85671,195117,207034,8.1224363157,-4.3764725354000005,3.0053851856000002,75
85839,195184,207066,8.1499537756,-4.4243289874,3.0484559924,76
85969,195252,207109,8.1104722027,-4.3944187049,2.8761727652,77
86069,195323,207152,8.1499537756,-4.3489550755,3.086741154,78
85821,195223,207183,8.128418372199999,-4.390829471,3.0077780082,79
85160,195046,207135,8.0925260332,-4.4997028993,2.9001009912,80
84463,194804,206935,8.087740388,-4.462614149,2.9826533709,81
83980,194625,206869,7.9968131291999995,-4.390829471,3.0544380489000003,82
83686,194474,206798,8.236095389199999,-4.4889351976,2.9300112737000004,83
83603,194416,206725,8.039883936,-4.382454591899999,3.0005995404,84
83630,194412,206745,8.155935832099999,-4.3334017286,2.9575287336000002,85
83777,194437,206748,8.0733834524,-4.3597227772,3.0364918793999998,86
83867,194483,206779,8.0542408716,-4.3262232608,2.9647072014,87
83965,194482,206801,8.1260255496,-4.4255253987,3.0005995404,88
84032,194518,206798,8.0386875247,-4.3944187049,3.0065815969000003,89
84106,194574,206810,8.116454259200001,-4.3250268494999995,2.9479574432,90
84205,194578,206782,8.1966138163,-4.3884366484,2.9359933301999996,91
84345,194654,206842,8.1188470818,-4.4291146326,2.9874390161,92
84491,194683,206879,8.1678999451,-4.4721854394000005,2.8785655878,93
84655,194719,206944,8.1655071225,-4.4039899953,3.0269205889999995,94
84847,194839,207000,8.1224363157,-4.3860438258,3.0269205889999995,95
85027,194900,207012,8.124829138299999,-4.438685923,3.0687949845,96
85209,194957,207078,8.0374911134,-4.3884366484,2.9575287336000002,97
85203,194974,207122,8.062615750700001,-4.5320060043999995,3.062812928,98
84669,194883,207099,8.099704501,-4.4458643908,2.9144579268,99
83886,194670,206957,8.051848049,-4.3956151162,2.7912275628999996,100
83264,194447,206811,8.0374911134,-4.2568314054,3.0077780082,101
82901,194219,206751,8.115257847899999,-4.390829471,3.014956476,102
82703,194080,206694,8.160721477300001,-4.4111684631,3.0448667585,103
82709,194070,206634,8.0291162343,-4.3645084224,2.9718856692,104
82867,194108,206693,8.1583286547,-4.378865358,3.0173492985999997,105
83060,194138,206663,8.0662049846,-4.4195433422,2.9407789753999998,106
83203,194220,206737,8.0255270004,-4.3836510032,3.0245277664,107
83340,194246,206723,8.026723411699999,-4.3010986235,3.038884702,108
83383,194296,206740,8.0063844196,-4.3932222936,2.8689942974,109
83502,194332,206823,7.9776705484,-4.4973100767,3.0544380489000003,110
83626,194357,206807,8.1080793801,-4.4841495524,3.0580272828,111
83780,194449,206832,8.0183485326,-4.258027816699999,2.9754749031,112
83988,194504,206877,8.2061851067,-4.4757746733,3.0364918793999998,113
84195,194584,206943,7.8975109913,-4.4339002778,3.0305098229,114
84400,194628,206974,8.017152121299999,-4.30708068,2.9862426048,115
84616,194710,207064,8.1104722027,-4.4255253987,3.0053851856000002,116
84808,194791,207124,8.2372918005,-4.3178483817,2.9826533709,117
84920,194858,207173,8.2420774457,-4.3980079388,3.0508488149999997,118
84520,194777,207139,8.0207413552,-4.3860438258,2.9072794589999997,119
83795,194578,207025,8.1487573643,-4.5164526575,3.0460631697999996,120
83191,194292,206925,8.0602229281,-4.3226340269,2.9886354273999998,121
82883,194134,206861,8.1092757914,-4.3956151162,3.0508488149999997,122
82757,194062,206802,8.1200434931,-4.3154555591,3.0376882907,123
82812,194044,206752,8.1332040174,-4.4578285038,2.9958138952,124
83007,194035,206771,8.0303126456,-4.4673997942,3.0891339766000003,125
83244,194094,206788,8.1774712355,-4.414757697,2.9718856692,126
83302,194163,206851,8.1044901462,-4.382454591899999,2.9240292172,127
83498,194162,206837,8.13559684,-4.4111684631,3.0412775246,128
83634,194207,206868,8.0805619202,-4.3106699139,3.0687949845,129
83782,194234,206893,8.044669581199999,-4.3645084224,2.9108686929000003,130
83936,194303,206915,8.1344004287,-4.4721854394000005,3.0927232105,131
84105,194387,206961,8.061419339399999,-4.3692940676,2.9527430884,132
84306,194432,207028,8.111668614,-4.3956151162,3.0747770410000004,133
84536,194516,207065,8.1056865575,-4.42672181,3.0029923629999997,134
84756,194556,207070,8.115257847899999,-4.3836510032,3.0412775246,135
84973,194644,207152,8.1678999451,-4.4434715682,3.0257241777000004,136
85193,194758,207224,8.102097323599999,-4.450650036,2.9958138952,137
85413,194810,207264,7.9764741371,-4.4004007614,3.1250263156,138
85468,194854,207307,8.155935832099999,-4.353740720699999,3.0065815969000003,139
85116,194757,207248,8.027919823,-4.4303110439,2.9682964353,140
84667,194544,207158,8.1918281711,-4.387240237099999,3.0065815969000003,141
84370,194295,207137,8.039883936,-4.3645084224,3.0963124444,142
84270,194201,206999,8.1846497033,-4.3740797127999995,3.0484559924,143
84284,194217,206996,8.044669581199999,-4.3728833015,3.0281170003,144
84393,194177,207019,8.0961152671,-4.342973019,2.9766713144,145
84598,194201,206999,8.102097323599999,-4.492524431500001,3.0759734523,146
84767,194248,207012,8.0650085733,-4.3764725354000005,2.9479574432,147
84911,194330,207038,8.1320076061,-4.3226340269,3.0771698636,148
85023,194318,207023,8.2301133327,-4.4410787456,3.0364918793999998,149
85196,194350,207083,8.0662049846,-4.5188454800999995,2.9084758702999998,150
85294,194391,207080,8.0769726863,-4.3860438258,3.0807590974999997,151
85465,194455,207127,8.0793655089,-4.2819560427,3.0340990568,152
85626,194492,207164,8.087740388,-4.2687955184,3.0376882907,153
85865,194552,207192,8.074579863699999,-4.4434715682,3.0616165167,154
86039,194615,207238,8.049455226400001,-4.3716868902,3.0053851856000002,155
86217,194696,207269,8.2229348649,-4.42672181,3.0819555088,156
86413,194749,207337,8.1978102276,-4.3884366484,3.038884702,157
86521,194799,207363,8.0458659925,-4.3250268494999995,3.1310083721,158
86393,194759,207356,7.9992059518000005,-4.390829471,2.9850461935,159
85998,194517,207244,8.1260255496,-4.4937208428,3.0604201053999995,160
85746,194265,207133,8.061419339399999,-4.4051864066,3.0173492985999997,161
85594,194105,207082,8.129614783500001,-4.4075792292,3.0771698636,162
85561,194070,207043,8.1726855903,-4.4554356812,3.0544380489000003,163
85600,194020,206976,8.0781690976,-4.4087756405,3.0604201053999995,164
85729,194036,207009,8.0925260332,-4.510470601,3.0173492985999997,165
85893,194063,207022,8.0829547428,-4.3178483817,2.9934210726,166
86017,194160,207051,7.9764741371,-4.3345981399,2.9515466771,167
86126,194167,207030,8.1188470818,-4.42672181,3.0101708308,168
86217,194224,207071,8.1463645417,-4.3621155998,2.9778677257000004,169
86353,194277,207093,8.1044901462,-4.2281175342,3.0317062341999996,170
86512,194309,207109,8.0255270004,-4.5008993106,3.0532416376,171
86637,194383,207142,8.2157563971,-4.3453658416,2.9934210726,172
86816,194429,207134,8.137989662599999,-4.4291146326,3.014956476,173
86977,194500,207221,8.1391860739,-4.3680976563,3.0544380489000003,174
87181,194584,207278,7.9585279676,-4.3154555591,2.9407789753999998,175
87335,194650,207349,8.1308111948,-4.3513478981,3.0293134116,176
87489,194716,207332,8.1188470818,-4.378865358,3.0532416376,177
87536,194759,207379,7.9417782094,-4.4279182213,2.9946174839,178
87286,194633,207313,8.0099736535,-4.2915273330999995,3.0113672421,179
86953,194397,207194,8.267202082999999,-4.4111684631,3.0233313551,180
86624,194190,207107,8.0015987744,-4.415954108299999,3.0759734523,181
86559,194019,207036,8.0961152671,-4.527220359199999,3.0101708308,182
86509,193938,206952,8.049455226400001,-4.4398823343,2.9766713144,183
86545,193913,206905,8.1224363157,-4.4171505196,3.0161528873,184
86630,193969,206948,8.1810604694,-4.4518464473,3.0640093393,185
86765,194010,206964,8.0075808309,-4.3716868902,2.9431717980000003,186
86851,194018,207006,8.0542408716,-4.4590249151000005,3.0711878071,187
86934,194047,206972,8.182256880699999,-4.354937132,2.9168507494,188
87025,194087,206986,8.1583286547,-4.4362931003999995,3.1525437755,189
87113,194176,207012,8.1463645417,-4.4374895117,3.0029923629999997,190
87221,194213,207026,8.1774712355,-4.4195433422,3.0125636533999995,191
87354,194254,207120,8.0853475654,-4.4793639072,3.0412775246,192
87493,194337,207132,8.0482588151,-4.4841495524,3.0532416376,193
87630,194416,207206,8.1415788965,-4.342973019,2.9527430884,194
87790,194514,207236,8.051848049,-4.2484565263,2.8773691765,195
87915,194552,207271,7.992027484,-4.3956151162,2.9934210726,196
88110,194652,207319,8.1774712355,-4.3597227772,2.9647072014,197
88210,194717,207356,8.1583286547,-4.4673997942,2.9814569596,198
88121,194747,207391,8.0542408716,-4.4195433422,3.0424739359,199
87778,194540,207280,8.0685978072,-4.3369909625,2.9527430884,200
87405,194263,207132,8.0674013959,-4.390829471,3.0424739359,201
87119,194079,207054,8.0063844196,-4.3334017286,3.0245277664,202
86941,193953,206991,8.1631142999,-4.3154555591,2.9479574432,203
86842,193902,206919,7.942974620699999,-4.450650036,2.9694928465999997,204
86861,193904,206911,8.1188470818,-4.347758664200001,3.0735806297,205
86927,193922,206939,8.1104722027,-4.4051864066,3.0975088557,206
86997,193996,206974,8.1391860739,-4.4075792292,3.0807590974999997,207
87028,194035,206979,7.998009540499999,-4.331008906,3.0329026454999997,208
87074,194059,207004,8.0554372829,-4.3250268494999995,2.9336005076,209
87128,194093,206985,8.0733834524,-4.319044793,3.0029923629999997,210
87196,194121,207037,8.0350982908,-4.4339002778,3.0125636533999995,211
87285,194177,207037,8.0590265168,-4.4494536247,2.9826533709,212
87378,194208,207080,8.1188470818,-4.4243289874,3.0053851856000002,213
87532,194311,207108,8.0542408716,-4.5332024157,3.0424739359,214
87619,194352,207132,8.0183485326,-4.4207397534999995,3.0735806297,215
87758,194467,207216,8.1427753078,-4.4315074552,3.0400811133000003,216
87878,194555,207289,8.0697942185,-4.3130627365,2.9575287336000002,217
88004,194643,207294,8.0207413552,-4.4602213264,2.9982067177999996,218
88137,194698,207421,8.123632727,-4.3058842687,3.0329026454999997,219
88176,194780,207423,8.1439717191,-4.4087756405,2.9204399833,220
87875,194745,207366,8.159525066,-4.4339002778,2.919243572,221
87393,194478,207300,8.0973116784,-4.4279182213,3.0448667585,222
86929,194160,207169,8.0650085733,-4.3597227772,3.0317062341999996,223
86617,194044,207084,8.0805619202,-4.4518464473,2.9383861528,224
86429,193962,206993,8.1942209937,-4.3848474145,3.0029923629999997,225
86349,193923,206951,8.1882389372,-4.498506487999999,2.9347969189,226
86399,193925,206981,8.0542408716,-4.320241204299999,3.0424739359,227
86440,194023,206964,8.0829547428,-4.4362931003999995,3.0125636533999995,228
86457,194045,206985,8.0063844196,-4.4662033829,2.9647072014,229
86440,194024,206998,8.1870425259,-4.2987058009,3.0604201053999995,230
86432,194089,207023,7.969295669299999,-4.4099720518000005,2.9359933301999996,231
86430,194131,206992,8.099704501,-4.5152562462,3.0592236941,232
86459,194138,207044,8.1344004287,-4.4697926167999995,2.9886354273999998,233
86547,194176,207061,8.0781690976,-4.4315074552,3.0293134116,234
86632,194239,207079,8.1631142999,-4.4697926167999995,3.0352954681,235
86743,194303,207137,8.039883936,-4.4183469309,3.0436703472,236
86862,194384,207195,8.1942209937,-4.3764725354000005,3.0927232105,237
86947,194443,207261,8.0805619202,-4.4243289874,3.0604201053999995,238
87104,194565,207247,8.1511501869,-4.4398823343,3.0436703472,239
87162,194561,207312,8.1332040174,-4.5080777784,3.0364918793999998,240
86848,194571,207325,8.062615750700001,-4.474578262,2.9694928465999997,241
86420,194372,207225,8.0063844196,-4.4075792292,2.9407789753999998,242
85764,194101,207075,8.173882001600001,-4.2843488653,3.0317062341999996,243
85342,193930,206971,8.2217384536,-4.4099720518000005,3.0556344602,244
85097,193812,206927,8.0685978072,-4.4063828179,2.9766713144,245
84961,193779,206866,8.2061851067,-4.3752761241,3.1094729686999996,246
84998,193764,206855,8.13559684,-4.4123648744,3.0029923629999997,247
85062,193802,206910,8.0147592987,-4.5200418914,2.9934210726,248
85089,193849,206902,8.123632727,-4.3932222936,3.0951160330999996,249
85096,193856,206918,8.1320076061,-4.3728833015,2.9599215562,250
85100,193878,206924,7.9740813145,-4.3812581806,2.8989045799,251
85103,193922,206960,8.044669581199999,-4.4111684631,3.0544380489000003,252
85145,193895,206965,8.063812162,-4.465006971599999,2.9826533709,253
85229,193956,206976,8.1128650253,-4.4279182213,3.0233313551,254
85360,194006,207002,8.0374911134,-4.4207397534999995,2.8989045799,255
85455,194089,207051,8.005188008300001,-4.3884366484,2.9718856692,256
85596,194135,207083,8.039883936,-4.3357945512,3.0077780082,257
85742,194245,207156,8.039883936,-4.4470608021,3.0173492985999997,258
85885,194270,207159,8.115257847899999,-4.4339002778,3.0723842184,259
85831,194344,207235,7.928617685100001,-4.4051864066,3.0125636533999995,260
85310,194182,207145,8.005188008300001,-4.3621155998,2.9383861528,261
84580,193925,207032,8.182256880699999,-4.4195433422,3.0317062341999996,262
83984,193612,206896,8.1547394208,-4.4075792292,2.9958138952,263
83632,193480,206796,8.1260255496,-4.3932222936,3.0723842184,264
83437,193374,206736,8.1128650253,-4.3776689467,2.9970103065,265
83429,193307,206741,8.0291162343,-4.2795632201,2.9826533709,266
83556,193352,206734,8.1463645417,-4.4183469309,3.0532416376,267
83662,193400,206785,7.9262248625,-4.4135612857,3.0269205889999995,268
83757,193462,206798,8.124829138299999,-4.3633120111,3.1022945009000003,269
83815,193469,206836,8.2660056717,-4.4398823343,3.0675985732,270
83906,193505,206799,8.2037922841,-4.5008993106,3.0221349438,271
83989,193580,206881,7.984849016199999,-4.3716868902,3.0005995404,272
84110,193620,206914,8.0327054682,-4.4518464473,2.9766713144,273
84253,193683,206968,8.182256880699999,-4.4075792292,3.0340990568,274
84424,193715,206994,8.1320076061,-4.4087756405,2.9647072014,275
84610,193847,207044,7.9716884919,-4.4291146326,3.0496524037,276
84800,193895,207109,8.0303126456,-4.4362931003999995,3.0005995404,277
84970,194011,207133,8.1391860739,-4.402793583999999,2.979064137,278
85165,194101,207189,8.123632727,-4.3585263658999995,2.9455646206,279
85305,194175,207281,8.0793655089,-4.5595234643,3.1046873235,280
85031,194129,207259,8.1080793801,-4.3417766077,2.9575287336000002,281
84334,193888,207186,8.1487573643,-4.4195433422,2.8785655878,282
83696,193551,206983,8.1403824852,-4.4422751569,3.0508488149999997,283
83270,193361,206873,8.1308111948,-4.4315074552,2.9886354273999998,284
83081,193240,206858,8.0315090569,-4.4673997942,2.9575287336000002,285
82962,193129,206781,8.044669581199999,-4.4841495524,3.0077780082,286
83102,193128,206763,7.9752777258,-4.2508493489,3.0376882907,287
83282,193232,206764,8.063812162,-4.5008993106,3.0580272828,288
83464,193282,206823,8.057830105499999,-4.4051864066,3.014956476,289
83553,193292,206854,8.1367932513,-4.3812581806,2.9742784918,290
83686,193373,206931,8.0219377665,-4.4315074552,3.0759734523,291
83780,193397,206966,8.044669581199999,-4.4315074552,2.9742784918,292
83921,193462,206924,8.0853475654,-4.3154555591,3.0508488149999997,293
84070,193539,206984,8.0207413552,-4.4578285038,3.0879375653000003,294
84235,193570,207054,8.0650085733,-4.4004007614,3.0125636533999995,295
84456,193676,207039,8.1128650253,-4.4303110439,2.9443682093000003,296
84645,193765,207116,8.0901332106,-4.4362931003999995,3.0053851856000002,297
84855,193853,207161,8.0291162343,-4.3728833015,2.9862426048,298
85061,193932,207223,8.087740388,-4.4518464473,3.0747770410000004,299
85264,194057,207267,8.01595571,-4.415954108299999,3.1022945009000003,300
85451,194103,207313,8.1367932513,-4.347758664200001,3.0340990568,301
85486,194167,207379,8.1200434931,-4.414757697,2.9347969189,302
85061,194033,207313,7.986045427500001,-4.4434715682,2.8821548217,303
84453,193765,207195,8.124829138299999,-4.3417766077,3.0065815969000003,304
84003,193519,207041,8.1056865575,-4.2939201557,3.0675985732,305
83760,193315,206920,8.0506516377,-4.4530428586,2.9982067177999996,306
83580,193226,206899,8.1272219609,-4.4889351976,2.883351233,307
83746,193210,206863,8.074579863699999,-4.353740720699999,2.9168507494,308
83861,193245,206922,8.1032937349,-4.4673997942,3.0520452262999997,309
84038,193314,206880,7.9752777258,-4.3740797127999995,3.0017959517,310
84184,193374,206978,8.116454259200001,-4.3980079388,2.8797619991,311
84337,193407,206975,8.0733834524,-4.3393837851,2.9898318387,312
84400,193445,207029,7.942974620699999,-4.3286160834,3.0412775246,313
84526,193501,207059,8.084151154099999,-4.3274196721000004,3.1130622026,314
84662,193560,207058,8.0015987744,-4.4315074552,3.0436703472,315
84812,193614,207083,8.0470624038,-4.4171505196,2.9647072014,316
84998,193708,207114,8.003991596999999,-4.3513478981,3.0376882907,317
85186,193772,207176,8.049455226400001,-4.4841495524,3.0616165167,318
85373,193876,207230,8.099704501,-4.3585263658999995,2.979064137,319
85568,193927,207306,8.1750784129,-4.3728833015,3.0580272828,320
85728,194067,207305,8.2133635745,-4.3417766077,2.967100024,321
85937,194094,207402,8.017152121299999,-4.42672181,3.0329026454999997,322
86101,194221,207421,8.061419339399999,-4.2604206393,3.1334011947,323
86129,194262,207495,8.084151154099999,-4.4063828179,3.0843483314,324
85763,194156,207410,7.9190463947000005,-4.4219361648,3.0077780082,325
85288,193883,207254,8.0769726863,-4.402793583999999,3.0687949845,326
84917,193641,207163,8.063812162,-4.4458643908,2.9611179675,327
84735,193490,207102,8.1678999451,-4.3716868902,3.0125636533999995,328
84677,193487,207082,8.111668614,-4.5296131818,2.9491538545,329
84739,193475,207068,8.1200434931,-4.354937132,2.9599215562,330
84873,193495,207093,8.0350982908,-4.2532421715,2.9383861528,331
85003,193571,207119,8.01595571,-4.4171505196,3.0221349438,332
85082,193635,207128,8.049455226400001,-4.4075792292,3.0317062341999996,333
85134,193641,207101,8.0542408716,-4.4004007614,3.0269205889999995,334
85213,193679,207158,8.0817583315,-4.4219361648,2.9862426048,335
85286,193691,207172,8.1320076061,-4.4662033829,2.9958138952,336
85429,193725,207153,8.039883936,-4.3334017286,3.0556344602,337
85475,193784,207214,8.1068829688,-4.5152562462,3.0101708308,338
85684,193869,207179,8.1535430095,-4.3501514868,2.9886354273999998,339
85852,193975,207325,8.2037922841,-4.3154555591,3.0532416376,340
86006,194034,207339,8.0374911134,-4.4195433422,3.0209385325,341
86154,194105,207326,8.1224363157,-4.4889351976,3.0221349438,342
86373,194173,207385,8.0015987744,-4.390829471,2.9575287336000002,343
86419,194257,207493,8.0590265168,-4.4889351976,3.0795626862,344
86233,194266,207451,8.0255270004,-4.331008906,2.8881368781999996,345
85673,194017,207350,8.0925260332,-4.4961136654,2.9838497821999996,346
85112,193719,207189,8.129614783500001,-4.3692940676,3.0556344602,347
84732,193512,207101,8.1128650253,-4.4123648744,3.0939196218,348
84512,193385,207001,7.9716884919,-4.3621155998,3.0412775246,349
84407,193352,206995,8.0015987744,-4.4243289874,3.0496524037,350
84508,193356,206979,8.1499537756,-4.4793639072,2.9742784918,351
84536,193391,206965,8.0303126456,-4.3369909625,2.9120651042,352
84604,193408,207025,8.1080793801,-4.527220359199999,2.9982067177999996,353
84628,193439,207058,8.1104722027,-4.3405801963999995,3.0460631697999996,354
84659,193412,207039,8.0590265168,-4.438685923,2.9730820805000002,355
84726,193521,207052,8.074579863699999,-4.3369909625,3.0125636533999995,356
84797,193524,207063,8.1009009123,-4.4482572134,3.0340990568,357
84892,193627,207109,8.1655071225,-4.4482572134,2.9862426048,358
85036,193692,207128,8.2241312762,-4.3274196721000004,3.0041887742999998,359
85188,193733,207199,8.1415788965,-4.4410787456,3.0269205889999995,360
85347,193791,207198,8.0805619202,-4.4135612857,3.0221349438,361
85490,193901,207260,7.9489566772,-4.4315074552,3.0460631697999996,362
85652,193954,207316,8.1750784129,-4.3896330597,3.038884702,363
85747,194012,207336,8.0973116784,-4.4279182213,3.0687949845,364
85366,193967,207318,8.075776275,-4.498506487999999,2.9623143788,365
84634,193680,207177,7.980063371,-4.3489550755,2.9874390161,366
83999,193366,207039,8.0554372829,-4.4362931003999995,3.0664021618999997,367
83527,193160,206910,8.1774712355,-4.3980079388,3.0077780082,368
83287,193023,206836,8.0949188558,-4.2891345105,2.9587251449000003,369
83164,192953,206804,8.1655071225,-4.4171505196,3.0364918793999998,370
83210,192958,206821,8.0781690976,-4.3812581806,3.0807590974999997,371
83358,192991,206819,7.9669028467,-4.4123648744,3.0197421212,372
83479,193066,206885,8.0219377665,-4.3393837851,3.0556344602,373
83532,193118,206866,8.01595571,-4.4769710846,3.0436703472,374
83643,193166,206923,8.2109707519,-4.3956151162,3.0065815969000003,375
83733,193208,206951,8.0674013959,-4.3513478981,3.0484559924,376
83851,193256,206983,8.2289169214,-4.3896330597,3.1022945009000003,377
83993,193312,206985,8.128418372199999,-4.3944187049,2.9706892578999997,378
84151,193363,207104,8.123632727,-4.4937208428,2.9838497821999996,379
84343,193489,207087,7.9992059518000005,-4.3752761241,2.9718856692,380
84525,193575,207204,8.0590265168,-4.4219361648,3.0364918793999998,381
84722,193661,207211,8.2037922841,-4.42672181,3.0484559924,382
84897,193748,207256,8.0817583315,-4.4410787456,3.0340990568,383
85100,193842,207369,8.1104722027,-4.4697926167999995,3.0508488149999997,384
85146,193937,207366,8.0470624038,-4.4291146326,3.0843483314,385
84713,193791,207337,8.0913296219,-4.5367916496,2.9742784918,386
83932,193528,207201,8.0889367993,-4.3920258823,3.0364918793999998,387
83288,193228,206980,8.1080793801,-4.3609191885,2.9694928465999997,388
82895,192998,206915,8.0315090569,-4.5008993106,3.0951160330999996,389
82711,192914,206828,8.074579863699999,-4.5487557626,3.0879375653000003,390
82702,192847,206774,8.0255270004,-4.382454591899999,2.9934210726,391
82824,192864,206793,8.070990629799999,-4.4590249151000005,3.1429724850999996,392
83008,192926,206865,8.1487573643,-4.3166519704,3.0221349438,393
83139,192993,206919,8.049455226400001,-4.4183469309,3.0891339766000003,394
83310,193049,206907,7.992027484,-4.2675991071,3.0317062341999996,395
83390,193108,206951,8.1092757914,-4.3992043501,3.0269205889999995,396
83507,193147,207010,8.1056865575,-4.3345981399,3.0221349438,397
83622,193184,206993,8.0865439767,-4.4183469309,3.0915267992,398
83809,193239,207074,8.1391860739,-4.474578262,2.9850461935,399
84005,193360,207108,8.1332040174,-4.415954108299999,2.9874390161,400
84182,193409,207158,8.0123664761,-4.4446679795,3.0436703472,401
84412,193500,207243,8.0183485326,-4.3752761241,2.9982067177999996,402
84613,193634,207276,8.1667035338,-4.4769710846,3.0508488149999997,403
84817,193703,207356,8.1320076061,-4.3094735026,3.0807590974999997,404
85032,193810,207372,8.123632727,-4.4614177377,3.0209385325,405
85233,193881,207419,8.102097323599999,-4.450650036,3.0831519201,406
85313,194020,207444,7.9992059518000005,-4.3776689467,3.0005995404,407
84943,193938,207460,8.0027951857,-4.4243289874,2.9599215562,408
84239,193633,207281,8.1547394208,-4.3034914461,2.9814569596,409
83653,193389,207176,8.062615750700001,-4.3633120111,3.1034909122000003,410
83347,193187,207061,8.057830105499999,-4.3597227772,3.0364918793999998,411
83178,193080,207015,7.9872418388,-4.5044885445,3.0412775246,412
83254,193097,206986,8.075776275,-4.465006971599999,3.1453653077,413
83398,193093,206997,7.8927253461,-4.3298124947,3.0604201053999995,414
83565,193169,207026,8.0135628874,-4.4279182213,3.0664021618999997,415
83694,193223,207055,8.0901332106,-4.4721854394000005,3.0759734523,416
83789,193278,207087,8.0805619202,-4.4339002778,3.014956476,417
83864,193297,207111,8.1080793801,-4.2915273330999995,3.0101708308,418
83984,193369,207127,8.0985080897,-4.5212383027000005,3.0484559924,419
84095,193409,207163,8.0243305891,-4.3657048337,3.0783662749,420
84248,193444,207170,8.1882389372,-4.4482572134,3.0340990568,421
84415,193525,207233,8.0590265168,-4.3214376156,3.1022945009000003,422
84599,193570,207279,8.1511501869,-4.3884366484,3.0412775246,423
84764,193663,207341,7.9932238953,-4.4291146326,2.9587251449000003,424
84964,193738,207337,8.0374911134,-4.4015971727,3.1286155494999996,425
85147,193841,207460,8.1631142999,-4.4458643908,3.0245277664,426
85343,193959,207481,8.0566336942,-4.378865358,3.0807590974999997,427
85450,194046,207555,8.0949188558,-4.5415772948,3.0915267992,428
85176,193966,207490,8.0829547428,-4.4171505196,3.014956476,429
84527,193705,207397,8.1535430095,-4.3812581806,3.0520452262999997,430
83934,193385,207265,8.0805619202,-4.4219361648,3.098705267,431
83612,193229,207124,7.9824561936,-4.4841495524,2.9443682093000003,432
83457,193137,207068,8.1009009123,-4.3573299546,3.1692935337,433
83440,193107,207021,7.9872418388,-4.4315074552,3.0065815969000003,434
83574,193130,207036,8.0685978072,-4.3932222936,3.0819555088,435
83736,193198,207053,8.039883936,-4.378865358,2.9647072014,436
83899,193212,207093,8.1188470818,-4.4602213264,3.0173492985999997,437
83885,193254,207125,8.0985080897,-4.4889351976,3.0675985732,438
84054,193296,207160,8.116454259200001,-4.4051864066,2.9623143788,439
84149,193310,207189,8.0865439767,-4.4135612857,3.0687949845,440
84211,193351,207210,8.0949188558,-4.3920258823,3.0652057506,441
84361,193414,207224,8.0685978072,-4.4362931003999995,3.0317062341999996,442
84531,193461,207240,8.0973116784,-4.4602213264,3.0125636533999995,443
84681,193542,207298,8.1080793801,-4.3118663252,3.0999016782999997,444
84847,193610,207333,8.061419339399999,-4.3645084224,3.014956476,445
85028,193700,207375,8.160721477300001,-4.4434715682,3.0496524037,446
85198,193787,207435,8.0781690976,-4.3405801963999995,3.0173492985999997,447
85339,193865,207503,8.2229348649,-4.5248275366,3.1010980895999998,448
85105,193840,207525,8.0985080897,-4.4877387863000004,3.0245277664,449
84449,193612,207359,7.992027484,-4.3633120111,2.9647072014,450
83768,193257,207144,8.0925260332,-4.465006971599999,3.0173492985999997,451
83305,193048,207004,8.1918281711,-4.5595234643,3.1262227269,452
83044,192936,207003,8.027919823,-4.4183469309,2.9431717980000003,453
82906,192861,206923,8.01595571,-4.5248275366,3.038884702,454
83038,192841,206909,8.1415788965,-4.5188454800999995,2.9934210726,455
83220,192883,206966,8.0937224445,-4.3345981399,3.0711878071,456
83368,192918,207018,8.0183485326,-4.4769710846,3.1357940173,457
83478,193009,207010,8.0769726863,-4.3884366484,3.0005995404,458
83564,193002,207038,8.039883936,-4.465006971599999,3.0532416376,459
83663,193068,207082,8.147560953,-4.3956151162,3.0544380489000003,460
83778,193117,207116,8.1009009123,-4.4542392699,3.0771698636,461
83926,193190,207115,8.102097323599999,-4.387240237099999,3.0640093393,462
84102,193269,207168,7.9836526049,-4.3812581806,3.1154550251999997,463
84279,193316,207224,8.0685978072,-4.4327038665,3.0592236941,464
84459,193407,207269,8.0063844196,-4.3932222936,3.086741154,465
84641,193465,207359,7.9884382501,-4.387240237099999,3.0053851856000002,466
84840,193639,207408,8.0422767586,-4.4841495524,3.0185457098999997,467
85039,193692,207435,8.051848049,-4.3716868902,3.0364918793999998,468
85104,193757,207477,8.074579863699999,-4.462614149,3.098705267,469
84641,193639,207424,7.9130643382,-4.3692940676,3.0053851856000002,470
83898,193350,207274,8.070990629799999,-4.4877387863000004,3.0496524037,471
83244,193017,207107,8.087740388,-4.450650036,3.1429724850999996,472
82853,192805,207012,8.0817583315,-4.4697926167999995,2.9958138952,473
82640,192699,206965,8.129614783500001,-4.4207397534999995,2.9958138952,474
82593,192651,206858,7.8807612331,-4.4015971727,3.0209385325,475
82724,192683,206876,8.074579863699999,-4.4123648744,3.0269205889999995,476
82939,192728,206933,8.084151154099999,-4.3034914461,3.0831519201,477
83093,192798,206977,7.9788669596999995,-4.3298124947,3.1393832512,478
83213,192814,206970,7.9788669596999995,-4.382454591899999,3.0771698636,479
83311,192873,207022,8.1212399044,-4.5595234643,2.99102825,480
83438,192956,207046,7.9824561936,-4.387240237099999,2.9838497821999996,481
83559,193029,207041,8.1009009123,-4.4291146326,2.967100024,482
83706,193059,207136,8.1367932513,-4.4362931003999995,3.0484559924,483
83906,193118,207153,8.0135628874,-4.3860438258,3.0101708308,484
84085,193211,207203,7.9908310727,-4.465006971599999,3.0484559924,485
84285,193245,207270,8.0685978072,-4.450650036,3.0340990568,486
84498,193368,207331,8.2695949056,-4.4004007614,3.0927232105,487
84722,193484,207403,8.0231341778,-4.4769710846,2.9838497821999996,488
84907,193619,207476,8.0793655089,-4.4638105603,3.0436703472,489
85112,193694,207543,8.0542408716,-4.3920258823,3.1525437755,490
85182,193795,207503,7.9992059518000005,-4.582255279,3.1334011947,491
84750,193683,207489,7.969295669299999,-4.3716868902,2.8534409504999996,492
83976,193347,207327,8.170292767700001,-4.4039899953,2.9647072014,493
83335,193058,207177,8.0937224445,-4.366901245,3.0460631697999996,494
82952,192846,207051,7.992027484,-4.5020957219,3.1010980895999998,495
82777,192736,207013,7.920242806,-4.4518464473,3.0927232105,496
82763,192653,206977,8.1140614366,-4.4542392699,3.0029923629999997,497
82904,192722,206939,7.9716884919,-4.353740720699999,3.1238299043,498
83109,192824,207005,7.9585279676,-4.4171505196,3.0604201053999995,499
83273,192826,207043,8.1367932513,-4.5092741897,2.979064137,500
104673,187971,248708,4.9567320159,-5.0931229041,6.7046889252,710
104816,188033,248711,4.9567320159,-5.0931229041,6.7046889252,711
104951,188017,248706,4.9567320159,-5.0931229041,6.7046889252,712
105092,188025,248752,4.9567320159,-5.0931229041,6.7046889252,713
105270,188081,248749,4.9567320159,-5.0931229041,6.7046889252,714
105446,188121,248752,4.9567320159,-5.0931229041,6.7046889252,715
105605,188131,248741,4.9567320159,-5.0931229041,6.7046889252,716
105676,188149,248782,4.9567320159,-5.0931229041,6.7046889252,717
105278,188045,248742,4.9567320159,-5.0931229041,6.7046889252,718
104611,187936,248620,4.9567320159,-5.0931229041,6.7046889252,719
104171,187881,248591,4.9567320159,-5.0931229041,6.7046889252,720
103956,187828,248569,4.9567320159,-5.0931229041,6.7046889252,721
103812,187826,248541,4.9567320159,-5.0931229041,6.7046889252,722
104159,187852,248573,5.012963347,-5.3036912929,6.5838513839,723
104199,187898,248625,5.012963347,-5.3036912929,6.5838513839,724
104254,187878,248642,5.012963347,-5.3036912929,6.5838513839,725
104384,187947,248617,5.012963347,-5.3036912929,6.5838513839,726
104493,187937,248648,5.012963347,-5.3036912929,6.5838513839,727
104654,187935,248702,5.012963347,-5.3036912929,6.5838513839,728
104809,187972,248681,5.012963347,-5.3036912929,6.5838513839,729
104959,187977,248705,5.012963347,-5.3036912929,6.5838513839,730
105089,188013,248730,5.012963347,-5.3036912929,6.5838513839,731
105279,188049,248724,5.012963347,-5.3036912929,6.5838513839,732
105399,188072,248756,5.012963347,-5.3036912929,6.5838513839,733
105577,188090,248761,5.012963347,-5.3036912929,6.5838513839,734
105757,188137,248794,5.012963347,-5.3036912929,6.5838513839,735
105918,188158,248792,5.012963347,-5.3036912929,6.5838513839,736
105811,188123,248812,5.012963347,-5.3036912929,6.5838513839,737
105215,188009,248697,5.012963347,-5.3036912929,6.5838513839,738
104645,187916,248584,5.012963347,-5.3036912929,6.5838513839,739
104340,187888,248574,5.012963347,-5.3036912929,6.5838513839,740
104194,187849,248571,5.012963347,-5.3036912929,6.5838513839,741
104074,187817,248587,5.012963347,-5.3036912929,6.5838513839,742
104059,187821,248572,5.012963347,-5.3036912929,6.5838513839,743
104210,187832,248590,5.012963347,-5.3036912929,6.5838513839,744
104373,187885,248594,5.012963347,-5.3036912929,6.5838513839,745
104490,187889,248659,5.012963347,-5.3036912929,6.5838513839,746
104535,187925,248652,5.012963347,-5.3036912929,6.5838513839,747
104663,187957,248701,5.012963347,-5.3036912929,6.5838513839,748
104804,187981,248679,5.012963347,-5.3036912929,6.5838513839,749
104949,187999,248716,5.012963347,-5.3036912929,6.5838513839,750
105103,188061,248727,5.012963347,-5.3036912929,6.5838513839,751
105255,188079,248759,5.012963347,-5.3036912929,6.5838513839,752
105423,188098,248792,5.012963347,-5.3036912929,6.5838513839,753
105573,188160,248801,5.012963347,-5.3036912929,6.5838513839,754
105743,188176,248785,5.012963347,-5.3036912929,6.5838513839,755
105917,188217,248837,5.012963347,-5.3036912929,6.5838513839,756
106080,188246,248861,5.012963347,-5.3036912929,6.5838513839,757
106263,188253,248911,5.012963347,-5.3036912929,6.5838513839,758
106294,188262,248890,5.012963347,-5.3036912929,6.5838513839,759
105878,188164,248817,5.012963347,-5.3036912929,6.5838513839,760
105205,188042,248707,5.012963347,-5.3036912929,6.5838513839,761
104817,187989,248728,5.012963347,-5.3036912929,6.5838513839,762
104663,187943,248638,5.012963347,-5.3036912929,6.5838513839,763
104553,187938,248693,5.012963347,-5.3036912929,6.5838513839,764
105033,188076,248776,4.7796631435,-5.2115676228000005,6.7166530382000005,765
105080,188088,248831,4.7796631435,-5.2115676228000005,6.7166530382000005,766
105184,188132,248817,4.7796631435,-5.2115676228000005,6.7166530382000005,767
105349,188144,248858,4.7796631435,-5.2115676228000005,6.7166530382000005,768
105535,188206,248901,4.7796631435,-5.2115676228000005,6.7166530382000005,769
105671,188212,248914,4.7796631435,-5.2115676228000005,6.7166530382000005,770
105862,188262,248977,4.7796631435,-5.2115676228000005,6.7166530382000005,771
106022,188294,248957,4.7796631435,-5.2115676228000005,6.7166530382000005,772
106191,188345,248992,4.7796631435,-5.2115676228000005,6.7166530382000005,773
106310,188342,248972,4.7796631435,-5.2115676228000005,6.7166530382000005,774
106392,188336,249020,4.7796631435,-5.2115676228000005,6.7166530382000005,775
106476,188344,248990,4.7796631435,-5.2115676228000005,6.7166530382000005,776
106580,188343,248974,4.7796631435,-5.2115676228000005,6.7166530382000005,777
106581,188321,248921,4.7796631435,-5.2115676228000005,6.7166530382000005,778
106091,188206,248871,4.7796631435,-5.2115676228000005,6.7166530382000005,779
105296,188055,248686,4.7796631435,-5.2115676228000005,6.7166530382000005,780
104763,187971,248664,4.7796631435,-5.2115676228000005,6.7166530382000005,781
104472,187927,248586,4.7796631435,-5.2115676228000005,6.7166530382000005,782
104249,187891,248614,4.7796631435,-5.2115676228000005,6.7166530382000005,783
104146,187901,248630,4.7796631435,-5.2115676228000005,6.7166530382000005,784
104153,187927,248581,4.7796631435,-5.2115676228000005,6.7166530382000005,785
104326,187901,248628,4.7796631435,-5.2115676228000005,6.7166530382000005,786
104424,187945,248660,4.7796631435,-5.2115676228000005,6.7166530382000005,787
104446,187940,248656,4.7796631435,-5.2115676228000005,6.7166530382000005,788
104466,187926,248617,4.7796631435,-5.2115676228000005,6.7166530382000005,789
104544,187938,248668,4.7796631435,-5.2115676228000005,6.7166530382000005,790
104658,187982,248665,4.7796631435,-5.2115676228000005,6.7166530382000005,791
104765,188000,248706,4.7796631435,-5.2115676228000005,6.7166530382000005,792
104916,188013,248707,4.7796631435,-5.2115676228000005,6.7166530382000005,793
105065,188066,248704,4.7796631435,-5.2115676228000005,6.7166530382000005,794
105191,188063,248689,4.7796631435,-5.2115676228000005,6.7166530382000005,795
105321,188109,248727,4.7796631435,-5.2115676228000005,6.7166530382000005,796
105453,188102,248730,4.7796631435,-5.2115676228000005,6.7166530382000005,797
105589,188136,248712,4.7796631435,-5.2115676228000005,6.7166530382000005,798
105751,188167,248773,4.7796631435,-5.2115676228000005,6.7166530382000005,799
105892,188210,248817,4.7796631435,-5.2115676228000005,6.7166530382000005,800
105840,188180,248764,4.7796631435,-5.2115676228000005,6.7166530382000005,801
105238,188063,248697,4.7796631435,-5.2115676228000005,6.7166530382000005,802
104556,187933,248610,4.7796631435,-5.2115676228000005,6.7166530382000005,803
104169,187864,248530,4.7796631435,-5.2115676228000005,6.7166530382000005,804
103941,187822,248544,4.7796631435,-5.2115676228000005,6.7166530382000005,805
103820,187825,248531,4.7796631435,-5.2115676228000005,6.7166530382000005,806
103775,187856,248474,4.9878387097,-5.252245607000001,6.6616181184,807
103799,187864,248496,4.9878387097,-5.252245607000001,6.6616181184,808
103891,187877,248527,4.9878387097,-5.252245607000001,6.6616181184,809
104035,187878,248539,4.9878387097,-5.252245607000001,6.6616181184,810
104180,187903,248547,4.9878387097,-5.252245607000001,6.6616181184,811
104309,187922,248581,4.9878387097,-5.252245607000001,6.6616181184,812
104438,187930,248546,4.9878387097,-5.252245607000001,6.6616181184,813
104594,187950,248587,4.9878387097,-5.252245607000001,6.6616181184,814
104738,187946,248606,4.9878387097,-5.252245607000001,6.6616181184,815
104901,188008,248626,4.9878387097,-5.252245607000001,6.6616181184,816
105038,188061,248597,4.9878387097,-5.252245607000001,6.6616181184,817
105201,188081,248647,4.9878387097,-5.252245607000001,6.6616181184,818
105280,188055,248644,4.9878387097,-5.252245607000001,6.6616181184,819
104921,187974,248543,4.9878387097,-5.252245607000001,6.6616181184,820
104164,187865,248492,4.9878387097,-5.252245607000001,6.6616181184,821
103652,187767,248444,4.9878387097,-5.252245607000001,6.6616181184,822
103414,187747,248410,4.9878387097,-5.252245607000001,6.6616181184,823
103314,187726,248389,4.9878387097,-5.252245607000001,6.6616181184,824
103223,187727,248351,4.9878387097,-5.252245607000001,6.6616181184,825
103262,187736,248387,4.9878387097,-5.252245607000001,6.6616181184,826
103459,187774,248441,4.9878387097,-5.252245607000001,6.6616181184,827
103606,187764,248467,4.9878387097,-5.252245607000001,6.6616181184,828
103661,187769,248449,4.9878387097,-5.252245607000001,6.6616181184,829
103693,187804,248478,4.9878387097,-5.252245607000001,6.6616181184,830
103817,187818,248450,4.9878387097,-5.252245607000001,6.6616181184,831
103932,187829,248476,4.9878387097,-5.252245607000001,6.6616181184,832
104081,187853,248464,4.9878387097,-5.252245607000001,6.6616181184,833
104228,187903,248502,4.9878387097,-5.252245607000001,6.6616181184,834
104393,187936,248532,4.9878387097,-5.252245607000001,6.6616181184,835
104533,187926,248516,4.9878387097,-5.252245607000001,6.6616181184,836
104680,187945,248556,4.9878387097,-5.252245607000001,6.6616181184,837
104835,187977,248549,4.9878387097,-5.252245607000001,6.6616181184,838
104990,188022,248594,4.9878387097,-5.252245607000001,6.6616181184,839
105187,188031,248585,4.9878387097,-5.252245607000001,6.6616181184,840
105235,188039,248609,4.9878387097,-5.252245607000001,6.6616181184,841
104783,187926,248512,4.9878387097,-5.252245607000001,6.6616181184,842
104071,187828,248426,4.9878387097,-5.252245607000001,6.6616181184,843
103594,187715,248400,4.9878387097,-5.252245607000001,6.6616181184,844
103369,187733,248368,4.9878387097,-5.252245607000001,6.6616181184,845
103254,187685,248378,4.9878387097,-5.252245607000001,6.6616181184,846
103176,187677,248355,4.9878387097,-5.252245607000001,6.6616181184,847
103239,187708,248393,4.9878387097,-5.252245607000001,6.6616181184,848
102268,187499,248214,4.9399822577,-5.096712138,6.7118673929999995,849
102094,187484,248233,4.9399822577,-5.096712138,6.7118673929999995,850
101997,187467,248198,4.9399822577,-5.096712138,6.7118673929999995,851
101932,187430,248232,4.9399822577,-5.096712138,6.7118673929999995,852
102092,187485,248257,4.9399822577,-5.096712138,6.7118673929999995,853
102269,187515,248257,4.9399822577,-5.096712138,6.7118673929999995,854
102300,187518,248287,4.9399822577,-5.096712138,6.7118673929999995,855
102322,187527,248283,4.9399822577,-5.096712138,6.7118673929999995,856
102386,187545,248285,4.9399822577,-5.096712138,6.7118673929999995,857
102522,187534,248339,4.9399822577,-5.096712138,6.7118673929999995,858
102642,187561,248302,4.9399822577,-5.096712138,6.7118673929999995,859
102786,187601,248334,4.9399822577,-5.096712138,6.7118673929999995,860
102934,187624,248407,4.9399822577,-5.096712138,6.7118673929999995,861
103070,187651,248410,4.9399822577,-5.096712138,6.7118673929999995,862
103201,187660,248423,4.9399822577,-5.096712138,6.7118673929999995,863
103366,187692,248387,4.9399822577,-5.096712138,6.7118673929999995,864
103543,187710,248403,4.9399822577,-5.096712138,6.7118673929999995,865
103660,187719,248427,4.9399822577,-5.096712138,6.7118673929999995,866
103438,187676,248404,4.9399822577,-5.096712138,6.7118673929999995,867
102693,187528,248278,4.9399822577,-5.096712138,6.7118673929999995,868
102052,187418,248215,4.9399822577,-5.096712138,6.7118673929999995,869
101733,187365,248152,4.9399822577,-5.096712138,6.7118673929999995,870
101528,187334,248170,4.9399822577,-5.096712138,6.7118673929999995,871
101389,187295,248140,4.9399822577,-5.096712138,6.7118673929999995,872
101383,187329,248146,4.9399822577,-5.096712138,6.7118673929999995,873
101553,187350,248224,4.9399822577,-5.096712138,6.7118673929999995,874
101724,187403,248263,4.9399822577,-5.096712138,6.7118673929999995,875
101780,187383,248220,4.9399822577,-5.096712138,6.7118673929999995,876
101823,187391,248293,4.9399822577,-5.096712138,6.7118673929999995,877
101905,187396,248237,4.9399822577,-5.096712138,6.7118673929999995,878
102019,187401,248250,4.9399822577,-5.096712138,6.7118673929999995,879
102153,187421,248260,4.9399822577,-5.096712138,6.7118673929999995,880
102289,187484,248308,4.9399822577,-5.096712138,6.7118673929999995,881
102452,187472,248247,4.9399822577,-5.096712138,6.7118673929999995,882
102589,187529,248301,4.9399822577,-5.096712138,6.7118673929999995,883
102742,187566,248370,4.9399822577,-5.096712138,6.7118673929999995,884
102930,187540,248336,4.9399822577,-5.096712138,6.7118673929999995,885
103078,187605,248399,4.9399822577,-5.096712138,6.7118673929999995,886
103176,187623,248390,4.9399822577,-5.096712138,6.7118673929999995,887
102791,187563,248343,4.9399822577,-5.096712138,6.7118673929999995,888
102023,187380,248210,4.9399822577,-5.096712138,6.7118673929999995,889
101490,187300,248179,4.9399822577,-5.096712138,6.7118673929999995,890
106076,187860,248656,4.881358104,-5.2893343573,6.7657059015,891
106309,187883,248648,4.881358104,-5.2893343573,6.7657059015,892
106543,187917,248705,4.881358104,-5.2893343573,6.7657059015,893
106810,187952,248701,4.881358104,-5.2893343573,6.7657059015,894
107079,187999,248772,4.881358104,-5.2893343573,6.7657059015,895
107351,188035,248769,4.881358104,-5.2893343573,6.7657059015,896
107638,188064,248811,4.881358104,-5.2893343573,6.7657059015,897
107881,188117,248855,4.881358104,-5.2893343573,6.7657059015,898
108137,188129,248846,4.881358104,-5.2893343573,6.7657059015,899
108418,188182,248878,4.881358104,-5.2893343573,6.7657059015,900
108688,188206,248867,4.881358104,-5.2893343573,6.7657059015,901
108961,188242,248866,4.881358104,-5.2893343573,6.7657059015,902
109128,188265,248903,4.881358104,-5.2893343573,6.7657059015,903
108915,188223,248796,4.881358104,-5.2845487121,6.652046828,904
108486,188160,248833,4.881358104,-5.2845487121,6.652046828,905
108198,188149,248811,4.881358104,-5.2845487121,6.652046828,906
108086,188096,248743,4.881358104,-5.2845487121,6.652046828,907
108092,188100,248766,4.881358104,-5.2845487121,6.652046828,908
108101,188118,248744,4.881358104,-5.2845487121,6.652046828,909
108304,188164,248761,4.881358104,-5.2845487121,6.652046828,910
108659,188210,248802,4.881358104,-5.2845487121,6.652046828,911
108915,188232,248832,4.881358104,-5.2845487121,6.652046828,912
109132,188253,248840,4.881358104,-5.2845487121,6.652046828,913
109282,188297,248862,4.881358104,-5.2845487121,6.652046828,914
109443,188312,248872,4.881358104,-5.2845487121,6.652046828,915
109685,188334,248909,4.881358104,-5.2845487121,6.652046828,916
109896,188381,248929,4.881358104,-5.2845487121,6.652046828,917
110154,188402,248875,4.881358104,-5.2845487121,6.652046828,918
110377,188471,248888,4.881358104,-5.2845487121,6.652046828,919
110606,188468,248865,4.881358104,-5.2845487121,6.652046828,920
110825,188450,248914,4.881358104,-5.2845487121,6.652046828,921
111034,188474,248892,4.881358104,-5.2845487121,6.652046828,922
111240,188513,248907,4.881358104,-5.2845487121,6.652046828,923
111434,188574,248921,4.881358104,-5.2845487121,6.652046828,924
111645,188565,248908,4.881358104,-5.2845487121,6.652046828,925
111859,188574,248922,4.881358104,-5.2845487121,6.652046828,926
112062,188638,248952,4.881358104,-5.2845487121,6.652046828,927
112291,188637,248931,4.881358104,-5.2845487121,6.652046828,928
112422,188647,248954,4.881358104,-5.2845487121,6.652046828,929
