green,red,IR,acc_x,acc_y,acc_z,sample_index
83047,195375,206703,8.0817583315,-4.42672181,3.0616165167,1
82736,195216,206637,8.1224363157,-4.2747775749,3.0161528873,2
82606,195099,206647,8.1547394208,-4.3130627365,2.8642086522,3
82679,195065,206633,8.0925260332,-4.4901316089,2.9587251449000003,4
82876,195065,206603,8.1140614366,-4.3812581806,2.9718856692,5
83078,195092,206638,8.183453292,-4.4793639072,3.0125636533999995,6
83248,195125,206650,8.262416437799999,-4.4721854394000005,2.9359933301999996,7
83342,195122,206723,8.1918281711,-4.3633120111,3.0017959517,8
83474,195188,206744,7.969295669299999,-4.3334017286,2.9575287336000002,9
83589,195209,206748,8.0925260332,-4.4075792292,3.0329026454999997,10
83748,195222,206757,8.1140614366,-4.3573299546,3.0424739359,11
83943,195268,206778,8.0470624038,-4.3884366484,2.9838497821999996,12
84155,195327,206825,8.1439717191,-4.3812581806,3.0233313551,13
84379,195376,206858,8.183453292,-4.3345981399,2.9276184511,14
84551,195483,206886,7.998009540499999,-4.4243289874,2.9503502657999996,15
84827,195521,206959,8.1451681304,-4.4542392699,2.9647072014,16
85018,195600,206983,8.1918281711,-4.3334017286,2.9934210726,17
85191,195644,207026,8.2109707519,-4.5092741897,3.0699913958000002,18
84965,195650,207034,8.049455226400001,-4.3298124947,2.9072794589999997,19
84347,195453,206970,8.1619178886,-4.4195433422,2.9611179675,20
83799,195213,206855,8.128418372199999,-4.3381873738,3.0903303879,21
83476,195057,206739,8.061419339399999,-4.5068813671,2.9694928465999997,22
83352,194950,206743,8.1870425259,-4.4434715682,3.0029923629999997,23
83384,194901,206691,8.1882389372,-4.4841495524,2.9264220398,24
83545,194905,206682,8.0135628874,-4.3920258823,3.0376882907,25
83755,194947,206739,8.1535430095,-4.3609191885,3.0221349438,26
83937,194979,206761,8.0805619202,-4.3286160834,2.9575287336000002,27
84029,195055,206768,8.1212399044,-4.4398823343,2.9766713144,28
84213,195035,206801,8.1212399044,-4.4075792292,2.9862426048,29
84350,195070,206834,8.0650085733,-4.3369909625,2.9647072014,30
84487,195122,206852,8.1200434931,-4.414757697,2.919243572,31
84661,195148,206876,8.1104722027,-4.3645084224,3.0101708308,32
84856,195222,206920,8.1044901462,-4.353740720699999,3.0221349438,33
85051,195277,206945,8.0470624038,-4.5140598349,3.0352954681,34
85241,195328,207000,8.1583286547,-4.295116567,2.979064137,35
85454,195409,207049,8.1918281711,-4.2855452766,2.9754749031,36
85663,195472,207071,8.249255913499999,-4.3286160834,2.9395825641,37
85876,195570,207101,8.0542408716,-4.3752761241,2.9802605483,38
86039,195580,207175,8.0685978072,-4.415954108299999,3.0101708308,39
86051,195642,207232,8.0733834524,-4.4207397534999995,2.9288148624,40
85635,195519,207158,8.027919823,-4.4721854394000005,2.8809584104000003,41
85086,195348,207104,8.102097323599999,-4.4697926167999995,2.9874390161,42
84866,195195,207023,8.1499537756,-4.2640098732,3.0556344602,43
84711,195076,206937,8.0183485326,-4.4219361648,2.9742784918,44
84722,195032,206932,8.0422767586,-4.4602213264,2.9814569596,45
84819,194994,206898,8.1631142999,-4.4327038665,2.8953153460000003,46
84986,195085,206971,8.1535430095,-4.4135612857,2.9694928465999997,47
85135,195117,206942,8.1906317598,-4.4051864066,2.9216363945999997,48
85227,195150,206999,8.0853475654,-4.342973019,2.9647072014,49
85303,195181,207038,8.170292767700001,-4.415954108299999,2.9527430884,50
85399,195179,207051,8.0805619202,-4.2460637037,3.0317062341999996,51
85474,195236,207012,8.1499537756,-4.3920258823,2.9264220398,52
85631,195243,207021,8.0566336942,-4.4015971727,3.0843483314,53
85774,195276,207080,8.1272219609,-4.3166519704,3.1238299043,54
85911,195333,207083,8.0374911134,-4.402793583999999,2.9778677257000004,55
86098,195404,207129,8.0973116784,-4.4721854394000005,3.0448667585,56
86274,195420,207191,8.2025958728,-4.4219361648,3.0783662749,57
86443,195513,207220,8.0650085733,-4.3046878574,2.9862426048,58
86578,195604,207272,8.1403824852,-4.295116567,3.0364918793999998,59
86386,195528,207253,8.0087772422,-4.42672181,2.8737799425999997,60
85889,195392,207201,8.0470624038,-4.4219361648,2.9635107901000004,61
85378,195174,207111,8.1188470818,-4.3082770913,3.1046873235,62
85020,195003,207008,8.2013994615,-4.4781674959,2.9228328059,63
84827,194918,206943,8.074579863699999,-4.3501514868,3.0245277664,64
84771,194885,206917,8.0207413552,-4.4542392699,2.9599215562,65
84864,194856,206912,8.1619178886,-4.4004007614,2.9647072014,66
84972,194872,206944,8.123632727,-4.5355952383,3.014956476,67
85052,194924,206950,8.0961152671,-4.5236311253,3.1118657913,68
85084,194924,206929,8.075776275,-4.3465622529,3.0137600647,69
85119,194918,206972,8.1870425259,-4.4638105603,2.9551359109999997,70
85194,194968,206972,8.111668614,-4.4697926167999995,3.0005995404,71
85283,194945,206963,8.2097743406,-4.3896330597,3.0376882907,72
85403,194991,207025,8.0362947021,-4.3704904789,3.0005995404,73
85532,195041,207049,8.1571322434,-4.5020957219,2.9503502657999996,74
85671,195117,207034,8.1224363157,-4.3764725354000005,3.0053851856000002,75
85839,195184,207066,8.1499537756,-4.4243289874,3.0484559924,76
85969,195252,207109,8.1104722027,-4.3944187049,2.8761727652,77
86069,195323,207152,8.1499537756,-4.3489550755,3.086741154,78
85821,195223,207183,8.128418372199999,-4.390829471,3.0077780082,79
85160,195046,207135,8.0925260332,-4.4997028993,2.9001009912,80
84463,194804,206935,8.087740388,-4.462614149,2.9826533709,81
83980,194625,206869,7.9968131291999995,-4.390829471,3.0544380489000003,82
83686,194474,206798,8.236095389199999,-4.4889351976,2.9300112737000004,83
83603,194416,206725,8.039883936,-4.382454591899999,3.0005995404,84
83630,194412,206745,8.155935832099999,-4.3334017286,2.9575287336000002,85
83777,194437,206748,8.0733834524,-4.3597227772,3.0364918793999998,86
83867,194483,206779,8.0542408716,-4.3262232608,2.9647072014,87
83965,194482,206801,8.1260255496,-4.4255253987,3.0005995404,88
84032,194518,206798,8.0386875247,-4.3944187049,3.0065815969000003,89
84106,194574,206810,8.116454259200001,-4.3250268494999995,2.9479574432,90
84205,194578,206782,8.1966138163,-4.3884366484,2.9359933301999996,91
84345,194654,206842,8.1188470818,-4.4291146326,2.9874390161,92
84491,194683,206879,8.1678999451,-4.4721854394000005,2.8785655878,93
84655,194719,206944,8.1655071225,-4.4039899953,3.0269205889999995,94
84847,194839,207000,8.1224363157,-4.3860438258,3.0269205889999995,95
85027,194900,207012,8.124829138299999,-4.438685923,3.0687949845,96
85209,194957,207078,8.0374911134,-4.3884366484,2.9575287336000002,97
85203,194974,207122,8.062615750700001,-4.5320060043999995,3.062812928,98
84669,194883,207099,8.099704501,-4.4458643908,2.9144579268,99
83886,194670,206957,8.051848049,-4.3956151162,2.7912275628999996,100
83264,194447,206811,8.0374911134,-4.2568314054,3.0077780082,101
82901,194219,206751,8.115257847899999,-4.390829471,3.014956476,102
82703,194080,206694,8.160721477300001,-4.4111684631,3.0448667585,103
82709,194070,206634,8.0291162343,-4.3645084224,2.9718856692,104
82867,194108,206693,8.1583286547,-4.378865358,3.0173492985999997,105
83060,194138,206663,8.0662049846,-4.4195433422,2.9407789753999998,106
83203,194220,206737,8.0255270004,-4.3836510032,3.0245277664,107
83340,194246,206723,8.026723411699999,-4.3010986235,3.038884702,108
83383,194296,206740,8.0063844196,-4.3932222936,2.8689942974,109
83502,194332,206823,7.9776705484,-4.4973100767,3.0544380489000003,110
83626,194357,206807,8.1080793801,-4.4841495524,3.0580272828,111
83780,194449,206832,8.0183485326,-4.258027816699999,2.9754749031,112
83988,194504,206877,8.2061851067,-4.4757746733,3.0364918793999998,113
84195,194584,206943,7.8975109913,-4.4339002778,3.0305098229,114
84400,194628,206974,8.017152121299999,-4.30708068,2.9862426048,115
84616,194710,207064,8.1104722027,-4.4255253987,3.0053851856000002,116
84808,194791,207124,8.2372918005,-4.3178483817,2.9826533709,117
84920,194858,207173,8.2420774457,-4.3980079388,3.0508488149999997,118
84520,194777,207139,8.0207413552,-4.3860438258,2.9072794589999997,119
83795,194578,207025,8.1487573643,-4.5164526575,3.0460631697999996,120
83191,194292,206925,8.0602229281,-4.3226340269,2.9886354273999998,121
82883,194134,206861,8.1092757914,-4.3956151162,3.0508488149999997,122
82757,194062,206802,8.1200434931,-4.3154555591,3.0376882907,123
82812,194044,206752,8.1332040174,-4.4578285038,2.9958138952,124
83007,194035,206771,8.0303126456,-4.4673997942,3.0891339766000003,125
83244,194094,206788,8.1774712355,-4.414757697,2.9718856692,126
83302,194163,206851,8.1044901462,-4.382454591899999,2.9240292172,127
83498,194162,206837,8.13559684,-4.4111684631,3.0412775246,128
83634,194207,206868,8.0805619202,-4.3106699139,3.0687949845,129
83782,194234,206893,8.044669581199999,-4.3645084224,2.9108686929000003,130
83936,194303,206915,8.1344004287,-4.4721854394000005,3.0927232105,131
84105,194387,206961,8.061419339399999,-4.3692940676,2.9527430884,132
84306,194432,207028,8.111668614,-4.3956151162,3.0747770410000004,133
84536,194516,207065,8.1056865575,-4.42672181,3.0029923629999997,134
84756,194556,207070,8.115257847899999,-4.3836510032,3.0412775246,135
84973,194644,207152,8.1678999451,-4.4434715682,3.0257241777000004,136
85193,194758,207224,8.102097323599999,-4.450650036,2.9958138952,137
85413,194810,207264,7.9764741371,-4.4004007614,3.1250263156,138
85468,194854,207307,8.155935832099999,-4.353740720699999,3.0065815969000003,139
85116,194757,207248,8.027919823,-4.4303110439,2.9682964353,140
84667,194544,207158,8.1918281711,-4.387240237099999,3.0065815969000003,141
84370,194295,207137,8.039883936,-4.3645084224,3.0963124444,142
84270,194201,206999,8.1846497033,-4.3740797127999995,3.0484559924,143
84284,194217,206996,8.044669581199999,-4.3728833015,3.0281170003,144
84393,194177,207019,8.0961152671,-4.342973019,2.9766713144,145
84598,194201,206999,8.102097323599999,-4.492524431500001,3.0759734523,146
84767,194248,207012,8.0650085733,-4.3764725354000005,2.9479574432,147
84911,194330,207038,8.1320076061,-4.3226340269,3.0771698636,148
85023,194318,207023,8.2301133327,-4.4410787456,3.0364918793999998,149
85196,194350,207083,8.0662049846,-4.5188454800999995,2.9084758702999998,150
85294,194391,207080,8.0769726863,-4.3860438258,3.0807590974999997,151
85465,194455,207127,8.0793655089,-4.2819560427,3.0340990568,152
85626,194492,207164,8.087740388,-4.2687955184,3.0376882907,153
85865,194552,207192,8.074579863699999,-4.4434715682,3.0616165167,154
86039,194615,207238,8.049455226400001,-4.3716868902,3.0053851856000002,155
86217,194696,207269,8.2229348649,-4.42672181,3.0819555088,156
86413,194749,207337,8.1978102276,-4.3884366484,3.038884702,157
86521,194799,207363,8.0458659925,-4.3250268494999995,3.1310083721,158
86393,194759,207356,7.9992059518000005,-4.390829471,2.9850461935,159
85998,194517,207244,8.1260255496,-4.4937208428,3.0604201053999995,160
85746,194265,207133,8.061419339399999,-4.4051864066,3.0173492985999997,161
85594,194105,207082,8.129614783500001,-4.4075792292,3.0771698636,162
85561,194070,207043,8.1726855903,-4.4554356812,3.0544380489000003,163
85600,194020,206976,8.0781690976,-4.4087756405,3.0604201053999995,164
85729,194036,207009,8.0925260332,-4.510470601,3.0173492985999997,165
85893,194063,207022,8.0829547428,-4.3178483817,2.9934210726,166
86017,194160,207051,7.9764741371,-4.3345981399,2.9515466771,167
86126,194167,207030,8.1188470818,-4.42672181,3.0101708308,168
86217,194224,207071,8.1463645417,-4.3621155998,2.9778677257000004,169
86353,194277,207093,8.1044901462,-4.2281175342,3.0317062341999996,170
86512,194309,207109,8.0255270004,-4.5008993106,3.0532416376,171
86637,194383,207142,8.2157563971,-4.3453658416,2.9934210726,172
86816,194429,207134,8.137989662599999,-4.4291146326,3.014956476,173
86977,194500,207221,8.1391860739,-4.3680976563,3.0544380489000003,174
87181,194584,207278,7.9585279676,-4.3154555591,2.9407789753999998,175
87335,194650,207349,8.1308111948,-4.3513478981,3.0293134116,176
87489,194716,207332,8.1188470818,-4.378865358,3.0532416376,177
87536,194759,207379,7.9417782094,-4.4279182213,2.9946174839,178
87286,194633,207313,8.0099736535,-4.2915273330999995,3.0113672421,179
86953,194397,207194,8.267202082999999,-4.4111684631,3.0233313551,180
86624,194190,207107,8.0015987744,-4.415954108299999,3.0759734523,181
86559,194019,207036,8.0961152671,-4.527220359199999,3.0101708308,182
86509,193938,206952,8.049455226400001,-4.4398823343,2.9766713144,183
86545,193913,206905,8.1224363157,-4.4171505196,3.0161528873,184
86630,193969,206948,8.1810604694,-4.4518464473,3.0640093393,185
86765,194010,206964,8.0075808309,-4.3716868902,2.9431717980000003,186
86851,194018,207006,8.0542408716,-4.4590249151000005,3.0711878071,187
86934,194047,206972,8.182256880699999,-4.354937132,2.9168507494,188
87025,194087,206986,8.1583286547,-4.4362931003999995,3.1525437755,189
87113,194176,207012,8.1463645417,-4.4374895117,3.0029923629999997,190
87221,194213,207026,8.1774712355,-4.4195433422,3.0125636533999995,191
87354,194254,207120,8.0853475654,-4.4793639072,3.0412775246,192
87493,194337,207132,8.0482588151,-4.4841495524,3.0532416376,193
87630,194416,207206,8.1415788965,-4.342973019,2.9527430884,194
87790,194514,207236,8.051848049,-4.2484565263,2.8773691765,195
87915,194552,207271,7.992027484,-4.3956151162,2.9934210726,196
88110,194652,207319,8.1774712355,-4.3597227772,2.9647072014,197
88210,194717,207356,8.1583286547,-4.4673997942,2.9814569596,198
88121,194747,207391,8.0542408716,-4.4195433422,3.0424739359,199
87778,194540,207280,8.0685978072,-4.3369909625,2.9527430884,200
87405,194263,207132,8.0674013959,-4.390829471,3.0424739359,201
87119,194079,207054,8.0063844196,-4.3334017286,3.0245277664,202
86941,193953,206991,8.1631142999,-4.3154555591,2.9479574432,203
86842,193902,206919,7.942974620699999,-4.450650036,2.9694928465999997,204
86861,193904,206911,8.1188470818,-4.347758664200001,3.0735806297,205
86927,193922,206939,8.1104722027,-4.4051864066,3.0975088557,206
86997,193996,206974,8.1391860739,-4.4075792292,3.0807590974999997,207
87028,194035,206979,7.998009540499999,-4.331008906,3.0329026454999997,208
87074,194059,207004,8.0554372829,-4.3250268494999995,2.9336005076,209
87128,194093,206985,8.0733834524,-4.319044793,3.0029923629999997,210
87196,194121,207037,8.0350982908,-4.4339002778,3.0125636533999995,211
87285,194177,207037,8.0590265168,-4.4494536247,2.9826533709,212
87378,194208,207080,8.1188470818,-4.4243289874,3.0053851856000002,213
87532,194311,207108,8.0542408716,-4.5332024157,3.0424739359,214
87619,194352,207132,8.0183485326,-4.4207397534999995,3.0735806297,215
87758,194467,207216,8.1427753078,-4.4315074552,3.0400811133000003,216
87878,194555,207289,8.0697942185,-4.3130627365,2.9575287336000002,217
88004,194643,207294,8.0207413552,-4.4602213264,2.9982067177999996,218
88137,194698,207421,8.123632727,-4.3058842687,3.0329026454999997,219
88176,194780,207423,8.1439717191,-4.4087756405,2.9204399833,220
87875,194745,207366,8.159525066,-4.4339002778,2.919243572,221
87393,194478,207300,8.0973116784,-4.4279182213,3.0448667585,222
86929,194160,207169,8.0650085733,-4.3597227772,3.0317062341999996,223
86617,194044,207084,8.0805619202,-4.4518464473,2.9383861528,224
86429,193962,206993,8.1942209937,-4.3848474145,3.0029923629999997,225
86349,193923,206951,8.1882389372,-4.498506487999999,2.9347969189,226
86399,193925,206981,8.0542408716,-4.320241204299999,3.0424739359,227
86440,194023,206964,8.0829547428,-4.4362931003999995,3.0125636533999995,228
86457,194045,206985,8.0063844196,-4.4662033829,2.9647072014,229
86440,194024,206998,8.1870425259,-4.2987058009,3.0604201053999995,230
86432,194089,207023,7.969295669299999,-4.4099720518000005,2.9359933301999996,231
86430,194131,206992,8.099704501,-4.5152562462,3.0592236941,232
86459,194138,207044,8.1344004287,-4.4697926167999995,2.9886354273999998,233
86547,194176,207061,8.0781690976,-4.4315074552,3.0293134116,234
86632,194239,207079,8.1631142999,-4.4697926167999995,3.0352954681,235
86743,194303,207137,8.039883936,-4.4183469309,3.0436703472,236
86862,194384,207195,8.1942209937,-4.3764725354000005,3.0927232105,237
86947,194443,207261,8.0805619202,-4.4243289874,3.0604201053999995,238
87104,194565,207247,8.1511501869,-4.4398823343,3.0436703472,239
87162,194561,207312,8.1332040174,-4.5080777784,3.0364918793999998,240
86848,194571,207325,8.062615750700001,-4.474578262,2.9694928465999997,241
86420,194372,207225,8.0063844196,-4.4075792292,2.9407789753999998,242
85764,194101,207075,8.173882001600001,-4.2843488653,3.0317062341999996,243
85342,193930,206971,8.2217384536,-4.4099720518000005,3.0556344602,244
85097,193812,206927,8.0685978072,-4.4063828179,2.9766713144,245
84961,193779,206866,8.2061851067,-4.3752761241,3.1094729686999996,246
84998,193764,206855,8.13559684,-4.4123648744,3.0029923629999997,247
85062,193802,206910,8.0147592987,-4.5200418914,2.9934210726,248
85089,193849,206902,8.123632727,-4.3932222936,3.0951160330999996,249
85096,193856,206918,8.1320076061,-4.3728833015,2.9599215562,250
85100,193878,206924,7.9740813145,-4.3812581806,2.8989045799,251
85103,193922,206960,8.044669581199999,-4.4111684631,3.0544380489000003,252
85145,193895,206965,8.063812162,-4.465006971599999,2.9826533709,253
85229,193956,206976,8.1128650253,-4.4279182213,3.0233313551,254
85360,194006,207002,8.0374911134,-4.4207397534999995,2.8989045799,255
85455,194089,207051,8.005188008300001,-4.3884366484,2.9718856692,256
85596,194135,207083,8.039883936,-4.3357945512,3.0077780082,257
85742,194245,207156,8.039883936,-4.4470608021,3.0173492985999997,258
85885,194270,207159,8.115257847899999,-4.4339002778,3.0723842184,259
85831,194344,207235,7.928617685100001,-4.4051864066,3.0125636533999995,260
85310,194182,207145,8.005188008300001,-4.3621155998,2.9383861528,261
84580,193925,207032,8.182256880699999,-4.4195433422,3.0317062341999996,262
83984,193612,206896,8.1547394208,-4.4075792292,2.9958138952,263
83632,193480,206796,8.1260255496,-4.3932222936,3.0723842184,264
83437,193374,206736,8.1128650253,-4.3776689467,2.9970103065,265
83429,193307,206741,8.0291162343,-4.2795632201,2.9826533709,266
83556,193352,206734,8.1463645417,-4.4183469309,3.0532416376,267
83662,193400,206785,7.9262248625,-4.4135612857,3.0269205889999995,268
83757,193462,206798,8.124829138299999,-4.3633120111,3.1022945009000003,269
83815,193469,206836,8.2660056717,-4.4398823343,3.0675985732,270
83906,193505,206799,8.2037922841,-4.5008993106,3.0221349438,271
83989,193580,206881,7.984849016199999,-4.3716868902,3.0005995404,272
84110,193620,206914,8.0327054682,-4.4518464473,2.9766713144,273
84253,193683,206968,8.182256880699999,-4.4075792292,3.0340990568,274
84424,193715,206994,8.1320076061,-4.4087756405,2.9647072014,275
84610,193847,207044,7.9716884919,-4.4291146326,3.0496524037,276
84800,193895,207109,8.0303126456,-4.4362931003999995,3.0005995404,277
84970,194011,207133,8.1391860739,-4.402793583999999,2.979064137,278
85165,194101,207189,8.123632727,-4.3585263658999995,2.9455646206,279
85305,194175,207281,8.0793655089,-4.5595234643,3.1046873235,280
85031,194129,207259,8.1080793801,-4.3417766077,2.9575287336000002,281
84334,193888,207186,8.1487573643,-4.4195433422,2.8785655878,282
83696,193551,206983,8.1403824852,-4.4422751569,3.0508488149999997,283
83270,193361,206873,8.1308111948,-4.4315074552,2.9886354273999998,284
83081,193240,206858,8.0315090569,-4.4673997942,2.9575287336000002,285
82962,193129,206781,8.044669581199999,-4.4841495524,3.0077780082,286
83102,193128,206763,7.9752777258,-4.2508493489,3.0376882907,287
83282,193232,206764,8.063812162,-4.5008993106,3.0580272828,288
83464,193282,206823,8.057830105499999,-4.4051864066,3.014956476,289
83553,193292,206854,8.1367932513,-4.3812581806,2.9742784918,290
83686,193373,206931,8.0219377665,-4.4315074552,3.0759734523,291
83780,193397,206966,8.044669581199999,-4.4315074552,2.9742784918,292
83921,193462,206924,8.0853475654,-4.3154555591,3.0508488149999997,293
84070,193539,206984,8.0207413552,-4.4578285038,3.0879375653000003,294
84235,193570,207054,8.0650085733,-4.4004007614,3.0125636533999995,295
84456,193676,207039,8.1128650253,-4.4303110439,2.9443682093000003,296
84645,193765,207116,8.0901332106,-4.4362931003999995,3.0053851856000002,297
84855,193853,207161,8.0291162343,-4.3728833015,2.9862426048,298
85061,193932,207223,8.087740388,-4.4518464473,3.0747770410000004,299
85264,194057,207267,8.01595571,-4.415954108299999,3.1022945009000003,300
85451,194103,207313,8.1367932513,-4.347758664200001,3.0340990568,301
85486,194167,207379,8.1200434931,-4.414757697,2.9347969189,302
85061,194033,207313,7.986045427500001,-4.4434715682,2.8821548217,303
84453,193765,207195,8.124829138299999,-4.3417766077,3.0065815969000003,304
84003,193519,207041,8.1056865575,-4.2939201557,3.0675985732,305
83760,193315,206920,8.0506516377,-4.4530428586,2.9982067177999996,306
83580,193226,206899,8.1272219609,-4.4889351976,2.883351233,307
83746,193210,206863,8.074579863699999,-4.353740720699999,2.9168507494,308
83861,193245,206922,8.1032937349,-4.4673997942,3.0520452262999997,309
84038,193314,206880,7.9752777258,-4.3740797127999995,3.0017959517,310
84184,193374,206978,8.116454259200001,-4.3980079388,2.8797619991,311
84337,193407,206975,8.0733834524,-4.3393837851,2.9898318387,312
84400,193445,207029,7.942974620699999,-4.3286160834,3.0412775246,313
84526,193501,207059,8.084151154099999,-4.3274196721000004,3.1130622026,314
84662,193560,207058,8.0015987744,-4.4315074552,3.0436703472,315
84812,193614,207083,8.0470624038,-4.4171505196,2.9647072014,316
84998,193708,207114,8.003991596999999,-4.3513478981,3.0376882907,317
85186,193772,207176,8.049455226400001,-4.4841495524,3.0616165167,318
85373,193876,207230,8.099704501,-4.3585263658999995,2.979064137,319
85568,193927,207306,8.1750784129,-4.3728833015,3.0580272828,320
85728,194067,207305,8.2133635745,-4.3417766077,2.967100024,321
85937,194094,207402,8.017152121299999,-4.42672181,3.0329026454999997,322
86101,194221,207421,8.061419339399999,-4.2604206393,3.1334011947,323
86129,194262,207495,8.084151154099999,-4.4063828179,3.0843483314,324
85763,194156,207410,7.9190463947000005,-4.4219361648,3.0077780082,325
85288,193883,207254,8.0769726863,-4.402793583999999,3.0687949845,326
84917,193641,207163,8.063812162,-4.4458643908,2.9611179675,327
84735,193490,207102,8.1678999451,-4.3716868902,3.0125636533999995,328
84677,193487,207082,8.111668614,-4.5296131818,2.9491538545,329
84739,193475,207068,8.1200434931,-4.354937132,2.9599215562,330
84873,193495,207093,8.0350982908,-4.2532421715,2.9383861528,331
85003,193571,207119,8.01595571,-4.4171505196,3.0221349438,332
85082,193635,207128,8.049455226400001,-4.4075792292,3.0317062341999996,333
85134,193641,207101,8.0542408716,-4.4004007614,3.0269205889999995,334
85213,193679,207158,8.0817583315,-4.4219361648,2.9862426048,335
85286,193691,207172,8.1320076061,-4.4662033829,2.9958138952,336
85429,193725,207153,8.039883936,-4.3334017286,3.0556344602,337
85475,193784,207214,8.1068829688,-4.5152562462,3.0101708308,338
85684,193869,207179,8.1535430095,-4.3501514868,2.9886354273999998,339
85852,193975,207325,8.2037922841,-4.3154555591,3.0532416376,340
86006,194034,207339,8.0374911134,-4.4195433422,3.0209385325,341
86154,194105,207326,8.1224363157,-4.4889351976,3.0221349438,342
86373,194173,207385,8.0015987744,-4.390829471,2.9575287336000002,343
86419,194257,207493,8.0590265168,-4.4889351976,3.0795626862,344
86233,194266,207451,8.0255270004,-4.331008906,2.8881368781999996,345
85673,194017,207350,8.0925260332,-4.4961136654,2.9838497821999996,346
85112,193719,207189,8.129614783500001,-4.3692940676,3.0556344602,347
84732,193512,207101,8.1128650253,-4.4123648744,3.0939196218,348
84512,193385,207001,7.9716884919,-4.3621155998,3.0412775246,349
84407,193352,206995,8.0015987744,-4.4243289874,3.0496524037,350
84508,193356,206979,8.1499537756,-4.4793639072,2.9742784918,351
84536,193391,206965,8.0303126456,-4.3369909625,2.9120651042,352
84604,193408,207025,8.1080793801,-4.527220359199999,2.9982067177999996,353
84628,193439,207058,8.1104722027,-4.3405801963999995,3.0460631697999996,354
84659,193412,207039,8.0590265168,-4.438685923,2.9730820805000002,355
84726,193521,207052,8.074579863699999,-4.3369909625,3.0125636533999995,356
84797,193524,207063,8.1009009123,-4.4482572134,3.0340990568,357
84892,193627,207109,8.1655071225,-4.4482572134,2.9862426048,358
85036,193692,207128,8.2241312762,-4.3274196721000004,3.0041887742999998,359
85188,193733,207199,8.1415788965,-4.4410787456,3.0269205889999995,360
85347,193791,207198,8.0805619202,-4.4135612857,3.0221349438,361
85490,193901,207260,7.9489566772,-4.4315074552,3.0460631697999996,362
85652,193954,207316,8.1750784129,-4.3896330597,3.038884702,363
85747,194012,207336,8.0973116784,-4.4279182213,3.0687949845,364
85366,193967,207318,8.075776275,-4.498506487999999,2.9623143788,365
84634,193680,207177,7.980063371,-4.3489550755,2.9874390161,366
83999,193366,207039,8.0554372829,-4.4362931003999995,3.0664021618999997,367
83527,193160,206910,8.1774712355,-4.3980079388,3.0077780082,368
83287,193023,206836,8.0949188558,-4.2891345105,2.9587251449000003,369
83164,192953,206804,8.1655071225,-4.4171505196,3.0364918793999998,370
83210,192958,206821,8.0781690976,-4.3812581806,3.0807590974999997,371
83358,192991,206819,7.9669028467,-4.4123648744,3.0197421212,372
83479,193066,206885,8.0219377665,-4.3393837851,3.0556344602,373
83532,193118,206866,8.01595571,-4.4769710846,3.0436703472,374
83643,193166,206923,8.2109707519,-4.3956151162,3.0065815969000003,375
83733,193208,206951,8.0674013959,-4.3513478981,3.0484559924,376
83851,193256,206983,8.2289169214,-4.3896330597,3.1022945009000003,377
83993,193312,206985,8.128418372199999,-4.3944187049,2.9706892578999997,378
84151,193363,207104,8.123632727,-4.4937208428,2.9838497821999996,379
84343,193489,207087,7.9992059518000005,-4.3752761241,2.9718856692,380
84525,193575,207204,8.0590265168,-4.4219361648,3.0364918793999998,381
84722,193661,207211,8.2037922841,-4.42672181,3.0484559924,382
84897,193748,207256,8.0817583315,-4.4410787456,3.0340990568,383
85100,193842,207369,8.1104722027,-4.4697926167999995,3.0508488149999997,384
85146,193937,207366,8.0470624038,-4.4291146326,3.0843483314,385
84713,193791,207337,8.0913296219,-4.5367916496,2.9742784918,386
83932,193528,207201,8.0889367993,-4.3920258823,3.0364918793999998,387
83288,193228,206980,8.1080793801,-4.3609191885,2.9694928465999997,388
82895,192998,206915,8.0315090569,-4.5008993106,3.0951160330999996,389
82711,192914,206828,8.074579863699999,-4.5487557626,3.0879375653000003,390
82702,192847,206774,8.0255270004,-4.382454591899999,2.9934210726,391
82824,192864,206793,8.070990629799999,-4.4590249151000005,3.1429724850999996,392
83008,192926,206865,8.1487573643,-4.3166519704,3.0221349438,393
83139,192993,206919,8.049455226400001,-4.4183469309,3.0891339766000003,394
83310,193049,206907,7.992027484,-4.2675991071,3.0317062341999996,395
83390,193108,206951,8.1092757914,-4.3992043501,3.0269205889999995,396
83507,193147,207010,8.1056865575,-4.3345981399,3.0221349438,397
83622,193184,206993,8.0865439767,-4.4183469309,3.0915267992,398
83809,193239,207074,8.1391860739,-4.474578262,2.9850461935,399
84005,193360,207108,8.1332040174,-4.415954108299999,2.9874390161,400
84182,193409,207158,8.0123664761,-4.4446679795,3.0436703472,401
84412,193500,207243,8.0183485326,-4.3752761241,2.9982067177999996,402
84613,193634,207276,8.1667035338,-4.4769710846,3.0508488149999997,403
84817,193703,207356,8.1320076061,-4.3094735026,3.0807590974999997,404
85032,193810,207372,8.123632727,-4.4614177377,3.0209385325,405
85233,193881,207419,8.102097323599999,-4.450650036,3.0831519201,406
85313,194020,207444,7.9992059518000005,-4.3776689467,3.0005995404,407
84943,193938,207460,8.0027951857,-4.4243289874,2.9599215562,408
84239,193633,207281,8.1547394208,-4.3034914461,2.9814569596,409
83653,193389,207176,8.062615750700001,-4.3633120111,3.1034909122000003,410
83347,193187,207061,8.057830105499999,-4.3597227772,3.0364918793999998,411
83178,193080,207015,7.9872418388,-4.5044885445,3.0412775246,412
83254,193097,206986,8.075776275,-4.465006971599999,3.1453653077,413
83398,193093,206997,7.8927253461,-4.3298124947,3.0604201053999995,414
83565,193169,207026,8.0135628874,-4.4279182213,3.0664021618999997,415
83694,193223,207055,8.0901332106,-4.4721854394000005,3.0759734523,416
83789,193278,207087,8.0805619202,-4.4339002778,3.014956476,417
83864,193297,207111,8.1080793801,-4.2915273330999995,3.0101708308,418
83984,193369,207127,8.0985080897,-4.5212383027000005,3.0484559924,419
84095,193409,207163,8.0243305891,-4.3657048337,3.0783662749,420
84248,193444,207170,8.1882389372,-4.4482572134,3.0340990568,421
84415,193525,207233,8.0590265168,-4.3214376156,3.1022945009000003,422
84599,193570,207279,8.1511501869,-4.3884366484,3.0412775246,423
84764,193663,207341,7.9932238953,-4.4291146326,2.9587251449000003,424
84964,193738,207337,8.0374911134,-4.4015971727,3.1286155494999996,425
85147,193841,207460,8.1631142999,-4.4458643908,3.0245277664,426
85343,193959,207481,8.0566336942,-4.378865358,3.0807590974999997,427
85450,194046,207555,8.0949188558,-4.5415772948,3.0915267992,428
85176,193966,207490,8.0829547428,-4.4171505196,3.014956476,429
84527,193705,207397,8.1535430095,-4.3812581806,3.0520452262999997,430
83934,193385,207265,8.0805619202,-4.4219361648,3.098705267,431
83612,193229,207124,7.9824561936,-4.4841495524,2.9443682093000003,432
83457,193137,207068,8.1009009123,-4.3573299546,3.1692935337,433
83440,193107,207021,7.9872418388,-4.4315074552,3.0065815969000003,434
83574,193130,207036,8.0685978072,-4.3932222936,3.0819555088,435
83736,193198,207053,8.039883936,-4.378865358,2.9647072014,436
83899,193212,207093,8.1188470818,-4.4602213264,3.0173492985999997,437
83885,193254,207125,8.0985080897,-4.4889351976,3.0675985732,438
84054,193296,207160,8.116454259200001,-4.4051864066,2.9623143788,439
84149,193310,207189,8.0865439767,-4.4135612857,3.0687949845,440
84211,193351,207210,8.0949188558,-4.3920258823,3.0652057506,441
84361,193414,207224,8.0685978072,-4.4362931003999995,3.0317062341999996,442
84531,193461,207240,8.0973116784,-4.4602213264,3.0125636533999995,443
84681,193542,207298,8.1080793801,-4.3118663252,3.0999016782999997,444
84847,193610,207333,8.061419339399999,-4.3645084224,3.014956476,445
85028,193700,207375,8.160721477300001,-4.4434715682,3.0496524037,446
85198,193787,207435,8.0781690976,-4.3405801963999995,3.0173492985999997,447
85339,193865,207503,8.2229348649,-4.5248275366,3.1010980895999998,448
85105,193840,207525,8.0985080897,-4.4877387863000004,3.0245277664,449
84449,193612,207359,7.992027484,-4.3633120111,2.9647072014,450
83768,193257,207144,8.0925260332,-4.465006971599999,3.0173492985999997,451
83305,193048,207004,8.1918281711,-4.5595234643,3.1262227269,452
83044,192936,207003,8.027919823,-4.4183469309,2.9431717980000003,453
82906,192861,206923,8.01595571,-4.5248275366,3.038884702,454
83038,192841,206909,8.1415788965,-4.5188454800999995,2.9934210726,455
83220,192883,206966,8.0937224445,-4.3345981399,3.0711878071,456
83368,192918,207018,8.0183485326,-4.4769710846,3.1357940173,457
83478,193009,207010,8.0769726863,-4.3884366484,3.0005995404,458
83564,193002,207038,8.039883936,-4.465006971599999,3.0532416376,459
83663,193068,207082,8.147560953,-4.3956151162,3.0544380489000003,460
83778,193117,207116,8.1009009123,-4.4542392699,3.0771698636,461
83926,193190,207115,8.102097323599999,-4.387240237099999,3.0640093393,462
84102,193269,207168,7.9836526049,-4.3812581806,3.1154550251999997,463
84279,193316,207224,8.0685978072,-4.4327038665,3.0592236941,464
84459,193407,207269,8.0063844196,-4.3932222936,3.086741154,465
84641,193465,207359,7.9884382501,-4.387240237099999,3.0053851856000002,466
84840,193639,207408,8.0422767586,-4.4841495524,3.0185457098999997,467
85039,193692,207435,8.051848049,-4.3716868902,3.0364918793999998,468
85104,193757,207477,8.074579863699999,-4.462614149,3.098705267,469
84641,193639,207424,7.9130643382,-4.3692940676,3.0053851856000002,470
83898,193350,207274,8.070990629799999,-4.4877387863000004,3.0496524037,471
83244,193017,207107,8.087740388,-4.450650036,3.1429724850999996,472
82853,192805,207012,8.0817583315,-4.4697926167999995,2.9958138952,473
82640,192699,206965,8.129614783500001,-4.4207397534999995,2.9958138952,474
82593,192651,206858,7.8807612331,-4.4015971727,3.0209385325,475
82724,192683,206876,8.074579863699999,-4.4123648744,3.0269205889999995,476
82939,192728,206933,8.084151154099999,-4.3034914461,3.0831519201,477
83093,192798,206977,7.9788669596999995,-4.3298124947,3.1393832512,478
83213,192814,206970,7.9788669596999995,-4.382454591899999,3.0771698636,479
83311,192873,207022,8.1212399044,-4.5595234643,2.99102825,480
83438,192956,207046,7.9824561936,-4.387240237099999,2.9838497821999996,481
83559,193029,207041,8.1009009123,-4.4291146326,2.967100024,482
83706,193059,207136,8.1367932513,-4.4362931003999995,3.0484559924,483
83906,193118,207153,8.0135628874,-4.3860438258,3.0101708308,484
84085,193211,207203,7.9908310727,-4.465006971599999,3.0484559924,485
84285,193245,207270,8.0685978072,-4.450650036,3.0340990568,486
84498,193368,207331,8.2695949056,-4.4004007614,3.0927232105,487
84722,193484,207403,8.0231341778,-4.4769710846,2.9838497821999996,488
84907,193619,207476,8.0793655089,-4.4638105603,3.0436703472,489
85112,193694,207543,8.0542408716,-4.3920258823,3.1525437755,490
85182,193795,207503,7.9992059518000005,-4.582255279,3.1334011947,491
84750,193683,207489,7.969295669299999,-4.3716868902,2.8534409504999996,492
83976,193347,207327,8.170292767700001,-4.4039899953,2.9647072014,493
83335,193058,207177,8.0937224445,-4.366901245,3.0460631697999996,494
82952,192846,207051,7.992027484,-4.5020957219,3.1010980895999998,495
82777,192736,207013,7.920242806,-4.4518464473,3.0927232105,496
82763,192653,206977,8.1140614366,-4.4542392699,3.0029923629999997,497
82904,192722,206939,7.9716884919,-4.353740720699999,3.1238299043,498
83109,192824,207005,7.9585279676,-4.4171505196,3.0604201053999995,499
83273,192826,207043,8.1367932513,-4.5092741897,2.979064137,500
140497,193768,264682,6.8422762247,6.4019968663,-3.4755748265,710
140754,193859,264720,6.642475537599999,6.2919270267,-3.385843979,711
141079,193935,264821,6.8685972733,6.301498317099999,-3.445664544,712
141294,193957,264850,6.7381884416,6.3110696074999995,-3.4959138186,713
141429,193880,264812,6.735795619,6.3122660188,-3.4863425282,714
141475,193972,264842,6.7752771919,6.326622954399999,-3.5497523270999998,715
141644,194010,264916,6.8015982405,6.1435720255,-3.4971102299,716
141788,194011,264940,6.687939167000001,6.2584275103,-3.3559336964999997,717
141971,194079,264933,6.7788664257999995,6.302694728400001,-3.4671999473999997,718
142214,194154,264968,6.7621166676,6.2536418651,-3.4959138186,719
142401,194159,265026,6.7489561433,6.2524454538,-3.4002009146,720
142669,194225,265039,6.8039910631,6.3338014222,-3.421736318,721
142904,194269,265061,6.728617151199999,6.376872229,-3.4552358344000003,722
143165,194276,265045,6.7345992077,6.2835521476,-3.3906296242,723
143060,194217,265046,6.6831535217999996,6.3804614629,-3.5150563993999997,724
142173,193945,264860,6.8279192891000005,6.4043896889,-3.3583265191000002,725
140936,193719,264673,6.759723845,6.4187466245,-3.4073793824000003,726
140096,193634,264608,6.686742755699999,6.364908116,-3.4265219632000004,727
139724,193550,264638,6.8291157004,6.2919270267,-3.4480573666,728
139566,193643,264611,6.8123659422000005,6.3756758177,-3.4121650276000004,729
139651,193711,264687,6.8063838857,6.324230131799999,-3.409772205,730
139964,193803,264783,6.629315013299999,6.2883377928,-3.4624143022,731
140257,193853,264803,6.7310099738,6.285944970199999,-3.4013973259,732
140508,193895,264844,6.786044893600001,6.2979090831999995,-3.3738798660000002,733
140634,193903,264811,6.8039910631,6.2344992843,-3.4360932536,734
140764,193816,264819,6.7549381998,6.2297136391,-3.4193434953999997,735
140901,193938,264841,6.6197437229,6.4977097703,-3.3272198253,736
141239,194029,264888,6.7465633207,6.314658841399999,-3.3631121643,737
141384,194012,264939,6.8171515874,6.2787665024,-3.3391839383,738
141694,194003,264904,6.836294168199999,6.425925092299999,-3.3415767608999998,739
141950,194107,265003,6.7669023128,6.3876399307,-3.4241291406,740
142263,194170,264994,6.8709900959,6.3541404143,-3.3810583338,741
142536,194274,265083,6.855436749,6.3601224708,-3.3738798660000002,742
142865,194263,265081,6.7501525546,6.381657874199999,-3.4971102299,743
142864,194207,265066,6.7657059015,6.326622954399999,-3.433700431,744
142081,193984,264864,6.659225295800001,6.3314085996000005,-3.4193434953999997,745
140888,193746,264635,6.756134611099999,6.3996040437,-3.3535408739,746
139926,193593,264583,6.8470618699,6.3780686402999995,-3.3714870434,747
139476,193566,264525,6.7202422721,6.2548382764,-3.4887353508000003,748
139277,193512,264549,6.769295135399999,6.425925092299999,-3.4241291406,749
139355,193603,264649,6.8339013456,6.317051664,-3.4002009146,750
139622,193682,264625,6.728617151199999,6.381657874199999,-3.4049865597999998,751
139976,193787,264717,6.7453669094,6.3637117047,-3.4169506728,752
140161,193809,264749,6.7214386834,6.281159325,-3.385843979,753
140381,193804,264757,6.6855463444,6.3074803736,-3.4157542615,754
140554,193839,264763,6.8159551761,6.3457655352,-3.4193434953999997,755
140705,193868,264787,6.6676001749,6.2117674696,-3.4671999473999997,756
140957,193908,264856,6.8566331603,6.2380885182,-3.4348968423,757
141172,193938,264885,6.735795619,6.259623921599999,-3.4408788988000003,758
141430,194022,264916,6.6352970698,6.2787665024,-3.4480573666,759
141720,194017,264881,6.664010941,6.2237315826,-3.4169506728,760
142051,194068,264944,6.629315013299999,6.3517475917,-3.4648071248,761
142305,194164,264912,6.7800628371,6.3924255759,-3.433700431,762
142613,194126,265004,6.735795619,6.2644095668,-3.4504501892,763
142862,194192,265044,6.6963140460999995,6.3876399307,-3.3942188581,764
142827,194085,264936,6.6807606991999995,6.2057854131,-3.4648071248,765
142085,193897,264762,6.7142602155999995,6.2105710583,-3.4743784152000003,766
140927,193689,264633,6.6975104574,6.4331035601,-3.4432717214,767
140116,193553,264553,6.831508523,6.2644095668,-3.3942188581,768
139764,193575,264546,6.6676001749,6.4091753340999995,-3.4911281734,769
139722,193615,264597,6.7788664257999995,6.4331035601,-3.5700913192,770
139835,193679,264629,6.8279192891000005,6.3780686402999995,-3.4959138186,771
140113,193725,264677,6.7262243286,6.3122660188,-3.5150563993999997,772
140413,193802,264711,6.740581264199999,6.1950177114,-3.4624143022,773
140719,193814,264732,6.7513489659,6.3613188821,-3.5461630932,774
140822,193842,264725,6.7752771919,6.2787665024,-3.4600214796,775
140934,193777,264701,6.771687958,6.324230131799999,-3.5365918028000003,776
141141,193858,264805,6.7178494495,6.2177495260999995,-3.4504501892,777
141391,193920,264801,6.8015982405,6.2524454538,-3.4743784152000003,778
141591,193946,264808,6.7944197726999995,6.3194444866,-3.3702906320999997,779
141881,193974,264844,6.753741788499999,6.281159325,-3.4648071248,780
142159,194045,264894,6.6939212235,6.2261244052,-3.4372896648999998,781
142445,194086,264928,6.8446690473,6.2620167442,-3.3702906320999997,782
142709,194069,264938,6.6496540054,6.080162226600001,-3.4887353508000003,783
143030,194190,264975,6.7812592484,6.3110696074999995,-3.5425738593,784
143171,194160,264911,6.6891355783,6.3912291645999995,-3.5485559157999997,785
142806,194017,264822,6.8087767083,6.3912291645999995,-3.5018958750999998,786
141811,193812,264637,6.753741788499999,6.3003019058,-3.5581272062,787
140797,193627,264536,6.8841506202,6.3625152933999995,-3.4719855926,788
140267,193623,264509,6.823133643899999,6.3254265431,-3.3056844219,789
139927,193654,264503,6.6496540054,6.3505511804,-3.4671999473999997,790
139850,193693,264550,6.6819571105,6.2548382764,-3.5389846254,791
140056,193761,264619,6.6616181184,6.2261244052,-3.5712877305000004,792
140236,193803,264693,6.7166530382000005,6.3445691239,-3.5449666819,793
140546,193844,264699,6.8303121117,6.34097989,-3.5306097463,794
140676,193857,264745,6.6975104574,6.3361942448,-3.5509487384000002,795
140787,193882,264694,6.6951176348,6.302694728400001,-3.4145578502,796
140887,193882,264747,6.7453669094,6.232106461699999,-3.3930224468000003,797
141122,193899,264738,6.7262243286,6.3361942448,-3.3906296242,798
141355,194023,264809,6.6927248122,6.216553114800001,-3.5090743428999995,799
141624,194052,264839,6.771687958,6.3218373092,-3.4348968423,800
141874,194086,264854,6.6269221907,6.329015777,-3.4719855926,801
142187,194119,264888,6.728617151199999,6.436692794,-3.4755748265,802
142472,194170,264951,6.7226350947,6.2009997679,-3.5078779316,803
142725,194237,264944,6.735795619,6.185446421,-3.4073793824000003,804
142925,194275,264981,6.6568324732,6.4187466245,-3.3774690999,805
142593,194061,264847,6.7633130788999996,6.3098731962,-3.3882368016,806
141642,193864,264647,6.7884377162,6.3338014222,-3.4624143022,807
140746,193733,264521,6.757331022400001,6.185446421,-3.3655049869,808
140199,193691,264539,6.879364975,6.305087551,-3.4073793824000003,809
139983,193698,264577,6.6783678766,6.3349978335,-3.3882368016,810
139956,193740,264608,6.7274207398999994,6.3349978335,-3.4863425282,811
140099,193807,264625,6.6065831986,6.3577296482,-3.4480573666,812
140424,193874,264683,6.8422762247,6.3338014222,-3.4169506728,813
140693,193913,264718,6.7142602155999995,6.3158552527000005,-3.421736318,814
140901,193858,264763,6.81954441,6.4055861002,-3.3786655112000004,815
141007,193982,264738,6.7453669094,6.3194444866,-3.3248270027,816
141171,194028,264755,6.878168563699999,6.2763736798,-3.457628657,817
141407,194046,264814,6.8075802969999994,6.4187466245,-3.4624143022,818
141676,194062,264843,6.671189408799999,6.3457655352,-3.4025937372,819
141920,194133,264866,6.6915284009,6.3098731962,-3.4899317621,820
142250,194168,264901,6.8075802969999994,6.2560346877,-3.4181470840999997,821
142518,194167,264932,6.8159551761,6.302694728400001,-3.4002009146,822
142724,194278,264967,6.6831535217999996,6.376872229,-3.421736318,823
143063,194344,265030,6.7310099738,6.3098731962,-3.326023414,824
143326,194385,265003,6.8853470315,6.4474604957,-3.3032915993,825
143477,194360,265001,6.7310099738,6.305087551,-3.4313076084,826
142952,194167,264894,6.782455659699999,6.3732829951,-3.4408788988000003,827
142054,193935,264699,6.8542403377,6.260820332899999,-3.3391839383,828
141274,193846,264593,6.644868360199999,6.232106461699999,-3.2650064377,829
140803,193832,264598,6.7453669094,6.2237315826,-3.4121650276000004,830
140603,193828,264598,6.8458654586,6.2500526312,-3.397808092,831
140670,193840,264596,6.891329088,6.2548382764,-3.4265219632000004,832
140786,193918,264674,6.7130638043,6.2907306154,-3.4384860762,833
141110,193989,264751,6.7334027964,6.352944002999999,-3.4061829711000002,834
141311,193983,264761,6.725027917299999,6.4271215036000005,-3.3487552287,835
141538,194018,264772,6.7214386834,6.2548382764,-3.4085757937,836
141682,194008,264801,6.7142602155999995,6.2500526312,-3.4121650276000004,837
141830,194031,264773,6.753741788499999,6.2404813408,-3.433700431,838
142093,194076,264822,6.757331022400001,6.2500526312,-3.4073793824000003,839
142306,194159,264801,6.6556360619,6.3302121883,-3.4552358344000003,840
142615,194181,264845,6.735795619,6.3996040437,-3.4265219632000004,841
142869,194218,264890,6.6568324732,6.3756758177,-3.4121650276000004,842
143116,194252,264886,6.6221365455,6.4091753340999995,-3.4109686163,843
143387,194229,264940,6.7298135625,6.2344992843,-3.4911281734,844
143687,194321,264962,6.7046889252,6.2955162605999995,-3.5401810367,845
143909,194361,264982,6.786044893600001,6.352944002999999,-3.3655049869,846
144132,194379,264969,6.753741788499999,6.289534204100001,-3.5461630932,847
143775,194235,264894,6.7728843693,6.3876399307,-3.3846475676999996,848
142991,193998,264667,6.7070817478,6.2500526312,-3.3894332128999998,849
142227,193908,264558,6.7334027964,6.3469619465000005,-3.4839497056,850
141754,193850,264581,6.8087767083,6.326622954399999,-3.4289147858,851
141541,193877,264570,6.674778642700001,6.314658841399999,-3.4145578502,852
141483,193902,264623,6.7621166676,6.3361942448,-3.5557343836,853
141678,193930,264630,6.8614188055,6.324230131799999,-3.4133614389,854
141984,194088,264703,6.7896341275,6.259623921599999,-3.4707891813,855
142180,194074,264690,6.6472611828,6.3589260595,-3.5234312785000004,856
142287,193964,264736,6.8841506202,6.3074803736,-3.4564322457,857
142411,194078,264740,6.8255264665,6.2620167442,-3.397808092,858
142537,194200,264735,6.6975104574,6.270391623299999,-3.46959277,859
142714,194182,264763,6.6125652551,6.3218373092,-3.4313076084,860
142906,194231,264767,6.8051874744,6.3445691239,-3.4983066412,861
143199,194264,264784,6.674778642700001,6.3625152933999995,-3.5102707542,862
143458,194352,264823,6.6975104574,6.3708901725,-3.421736318,863
143708,194363,264872,6.8350977569,6.272784445899999,-3.541377448,864
143907,194405,264857,6.6532432393,6.4187466245,-3.4671999473999997,865
144122,194411,264936,6.7932233614,6.2763736798,-3.4205399067,866
144328,194465,264982,6.6699929975,6.2679988007,-3.3966116807,867
144359,194448,264928,6.6903319896,6.4175502132,-3.4121650276000004,868
143776,194229,264737,6.849454692499999,6.397211221099999,-3.2997023654,869
142883,194015,264558,6.6364934811000005,6.3074803736,-3.3415767608999998,870
142106,193953,264495,6.7609202563,6.3003019058,-3.4552358344000003,871
141564,193809,264464,6.7453669094,6.3924255759,-3.4145578502,872
141293,193879,264464,6.7525453772,6.2979090831999995,-3.4839497056,873
141244,193978,264536,6.6783678766,6.343372712599999,-3.4169506728,874
141399,194013,264567,6.853043926400001,6.3924255759,-3.4002009146,875
141561,194066,264633,6.7920269500999995,6.2668023894,-3.4121650276000004,876
141696,194013,264613,6.8051874744,6.3804614629,-3.4241291406,877
141766,194061,264631,6.8027946518,6.1866428323,-3.4408788988000003,878
141886,194107,264674,6.8626152168,6.3098731962,-3.3128628897,879
142015,194156,264633,6.769295135399999,6.4079789228,-3.4959138186,880
142167,194204,264655,6.699903279999999,6.326622954399999,-3.3702906320999997,881
142399,194223,264720,6.7800628371,6.3110696074999995,-3.4600214796,882
142605,194297,264684,6.6687965862,6.3254265431,-3.4528430117999998,883
142830,194284,264753,6.6807606991999995,6.3122660188,-3.4313076084,884
143074,194342,264746,6.6843499331,6.2715880346,-3.421736318,885
143321,194389,264797,6.7010996913000005,6.368497349899999,-3.4480573666,886
143488,194487,264823,6.7334027964,6.287141381500001,-3.397808092,887
143733,194439,264873,6.7453669094,6.3589260595,-3.3559336964999997,888
143484,194333,264745,6.7166530382000005,6.4426748505,-3.4588250683,889
142728,193984,264558,6.7369920303,6.293123438,-3.4025937372,890
141736,193903,264432,6.7489561433,6.2955162605999995,-3.3451659948,891
141077,193869,264335,6.8267228778,6.3086767849,-3.3523444626,892
140698,193911,264320,6.8171515874,6.3744794064,-3.4289147858,893
140509,193879,264363,6.7465633207,6.3996040437,-3.4432717214,894
140568,193895,264425,6.7621166676,6.3206408979,-3.3822547451,895
140789,193936,264432,6.759723845,6.301498317099999,-3.421736318,896
140949,194030,264480,6.6927248122,6.257231098999999,-3.4360932536,897
141156,194047,264502,6.7788664257999995,6.1160545656,-3.3738798660000002,898
141275,194107,264516,6.7908305388,6.4043896889,-3.4552358344000003,899
141379,194037,264515,6.7477597320000005,6.329015777,-3.3726834547,900
141511,194076,264550,6.769295135399999,6.259623921599999,-3.3367911156999996,901
141708,194108,264568,6.659225295800001,6.2668023894,-3.4002009146,902
141862,194220,264578,6.8051874744,6.4211394471,-3.3595229304,903
142163,194278,264623,6.7429740868,6.3505511804,-3.3128628897,904
142461,194193,264681,6.6831535217999996,6.3720865838,-3.3810583338,905
142648,194248,264682,6.7310099738,6.3003019058,-3.4839497056,906
142915,194333,264735,6.783652071000001,6.2141602922,-3.445664544,907
143175,194374,264712,6.8590259828999995,6.4235322697,-3.3463624061,908
143368,194479,264743,6.673582231399999,6.34097989,-3.4145578502,909
143462,194411,264676,6.6975104574,6.3732829951,-3.5090743428999995,910
142840,194174,264568,6.8350977569,6.3505511804,-3.493520996,911
141874,193976,264380,6.6269221907,6.3194444866,-3.4552358344000003,912
141038,193831,264221,6.8159551761,6.228517227799999,-3.3810583338,913
140607,193840,264283,6.7322063851000005,6.385247108100001,-3.4636107135,914
140394,193831,264234,6.741777675500001,6.293123438,-3.4432717214,915
140429,193881,264335,6.675975054,6.342176301299999,-3.3966116807,916
140573,193957,264351,6.7262243286,6.2620167442,-3.3954152694,917
140835,194056,264416,6.6783678766,6.2560346877,-3.4085757937,918
141060,194053,264404,6.6472611828,6.3003019058,-3.4815568829999997,919
141228,194064,264409,6.7214386834,6.302694728400001,-3.3846475676999996,920
141315,194049,264436,6.8566331603,6.2668023894,-3.4624143022,921
141430,194086,264465,6.6652073523,6.4247286809999995,-3.4193434953999997,922
141632,194069,264445,6.6927248122,6.3505511804,-3.4372896648999998,923
141875,194157,264544,6.7010996913000005,6.356533236900001,-3.409772205,924
142129,194182,264525,6.6676001749,6.3074803736,-3.4791640604,925
142379,194253,264631,6.7453669094,6.3541404143,-3.4815568829999997,926
142618,194299,264629,6.770491546700001,6.2309100503999995,-3.4049865597999998,927
142833,194357,264608,6.7166530382000005,6.2225351713,-3.4432717214,928
143104,194422,264707,6.664010941,6.4247286809999995,-3.5880374887,929
