green,red,IR,acc_x,acc_y,acc_z,sample_index
83047,195375,206703,8.0817583315,-4.42672181,3.0616165167,1
82736,195216,206637,8.1224363157,-4.2747775749,3.0161528873,2
82606,195099,206647,8.1547394208,-4.3130627365,2.8642086522,3
82679,195065,206633,8.0925260332,-4.4901316089,2.9587251449000003,4
82876,195065,206603,8.1140614366,-4.3812581806,2.9718856692,5
83078,195092,206638,8.183453292,-4.4793639072,3.0125636533999995,6
83248,195125,206650,8.262416437799999,-4.4721854394000005,2.9359933301999996,7
83342,195122,206723,8.1918281711,-4.3633120111,3.0017959517,8
83474,195188,206744,7.969295669299999,-4.3334017286,2.9575287336000002,9
83589,195209,206748,8.0925260332,-4.4075792292,3.0329026454999997,10
83748,195222,206757,8.1140614366,-4.3573299546,3.0424739359,11
83943,195268,206778,8.0470624038,-4.3884366484,2.9838497821999996,12
84155,195327,206825,8.1439717191,-4.3812581806,3.0233313551,13
84379,195376,206858,8.183453292,-4.3345981399,2.9276184511,14
84551,195483,206886,7.998009540499999,-4.4243289874,2.9503502657999996,15
84827,195521,206959,8.1451681304,-4.4542392699,2.9647072014,16
85018,195600,206983,8.1918281711,-4.3334017286,2.9934210726,17
85191,195644,207026,8.2109707519,-4.5092741897,3.0699913958000002,18
84965,195650,207034,8.049455226400001,-4.3298124947,2.9072794589999997,19
84347,195453,206970,8.1619178886,-4.4195433422,2.9611179675,20
83799,195213,206855,8.128418372199999,-4.3381873738,3.0903303879,21
83476,195057,206739,8.061419339399999,-4.5068813671,2.9694928465999997,22
83352,194950,206743,8.1870425259,-4.4434715682,3.0029923629999997,23
83384,194901,206691,8.1882389372,-4.4841495524,2.9264220398,24
83545,194905,206682,8.0135628874,-4.3920258823,3.0376882907,25
83755,194947,206739,8.1535430095,-4.3609191885,3.0221349438,26
83937,194979,206761,8.0805619202,-4.3286160834,2.9575287336000002,27
84029,195055,206768,8.1212399044,-4.4398823343,2.9766713144,28
84213,195035,206801,8.1212399044,-4.4075792292,2.9862426048,29
84350,195070,206834,8.0650085733,-4.3369909625,2.9647072014,30
84487,195122,206852,8.1200434931,-4.414757697,2.919243572,31
84661,195148,206876,8.1104722027,-4.3645084224,3.0101708308,32
84856,195222,206920,8.1044901462,-4.353740720699999,3.0221349438,33
85051,195277,206945,8.0470624038,-4.5140598349,3.0352954681,34
85241,195328,207000,8.1583286547,-4.295116567,2.979064137,35
85454,195409,207049,8.1918281711,-4.2855452766,2.9754749031,36
85663,195472,207071,8.249255913499999,-4.3286160834,2.9395825641,37
85876,195570,207101,8.0542408716,-4.3752761241,2.9802605483,38
86039,195580,207175,8.0685978072,-4.415954108299999,3.0101708308,39
86051,195642,207232,8.0733834524,-4.4207397534999995,2.9288148624,40
85635,195519,207158,8.027919823,-4.4721854394000005,2.8809584104000003,41
85086,195348,207104,8.102097323599999,-4.4697926167999995,2.9874390161,42
84866,195195,207023,8.1499537756,-4.2640098732,3.0556344602,43
84711,195076,206937,8.0183485326,-4.4219361648,2.9742784918,44
84722,195032,206932,8.0422767586,-4.4602213264,2.9814569596,45
84819,194994,206898,8.1631142999,-4.4327038665,2.8953153460000003,46
84986,195085,206971,8.1535430095,-4.4135612857,2.9694928465999997,47
85135,195117,206942,8.1906317598,-4.4051864066,2.9216363945999997,48
85227,195150,206999,8.0853475654,-4.342973019,2.9647072014,49
85303,195181,207038,8.170292767700001,-4.415954108299999,2.9527430884,50
85399,195179,207051,8.0805619202,-4.2460637037,3.0317062341999996,51
85474,195236,207012,8.1499537756,-4.3920258823,2.9264220398,52
85631,195243,207021,8.0566336942,-4.4015971727,3.0843483314,53
85774,195276,207080,8.1272219609,-4.3166519704,3.1238299043,54
85911,195333,207083,8.0374911134,-4.402793583999999,2.9778677257000004,55
86098,195404,207129,8.0973116784,-4.4721854394000005,3.0448667585,56
86274,195420,207191,8.2025958728,-4.4219361648,3.0783662749,57
86443,195513,207220,8.0650085733,-4.3046878574,2.9862426048,58
86578,195604,207272,8.1403824852,-4.295116567,3.0364918793999998,59
86386,195528,207253,8.0087772422,-4.42672181,2.8737799425999997,60
85889,195392,207201,8.0470624038,-4.4219361648,2.9635107901000004,61
85378,195174,207111,8.1188470818,-4.3082770913,3.1046873235,62
85020,195003,207008,8.2013994615,-4.4781674959,2.9228328059,63
84827,194918,206943,8.074579863699999,-4.3501514868,3.0245277664,64
84771,194885,206917,8.0207413552,-4.4542392699,2.9599215562,65
84864,194856,206912,8.1619178886,-4.4004007614,2.9647072014,66
84972,194872,206944,8.123632727,-4.5355952383,3.014956476,67
85052,194924,206950,8.0961152671,-4.5236311253,3.1118657913,68
85084,194924,206929,8.075776275,-4.3465622529,3.0137600647,69
85119,194918,206972,8.1870425259,-4.4638105603,2.9551359109999997,70
85194,194968,206972,8.111668614,-4.4697926167999995,3.0005995404,71
85283,194945,206963,8.2097743406,-4.3896330597,3.0376882907,72
85403,194991,207025,8.0362947021,-4.3704904789,3.0005995404,73
85532,195041,207049,8.1571322434,-4.5020957219,2.9503502657999996,74
85671,195117,207034,8.1224363157,-4.3764725354000005,3.0053851856000002,75
85839,195184,207066,8.1499537756,-4.4243289874,3.0484559924,76
85969,195252,207109,8.1104722027,-4.3944187049,2.8761727652,77
86069,195323,207152,8.1499537756,-4.3489550755,3.086741154,78
85821,195223,207183,8.128418372199999,-4.390829471,3.0077780082,79
85160,195046,207135,8.0925260332,-4.4997028993,2.9001009912,80
84463,194804,206935,8.087740388,-4.462614149,2.9826533709,81
83980,194625,206869,7.9968131291999995,-4.390829471,3.0544380489000003,82
83686,194474,206798,8.236095389199999,-4.4889351976,2.9300112737000004,83
83603,194416,206725,8.039883936,-4.382454591899999,3.0005995404,84
83630,194412,206745,8.155935832099999,-4.3334017286,2.9575287336000002,85
83777,194437,206748,8.0733834524,-4.3597227772,3.0364918793999998,86
83867,194483,206779,8.0542408716,-4.3262232608,2.9647072014,87
83965,194482,206801,8.1260255496,-4.4255253987,3.0005995404,88
84032,194518,206798,8.0386875247,-4.3944187049,3.0065815969000003,89
84106,194574,206810,8.116454259200001,-4.3250268494999995,2.9479574432,90
84205,194578,206782,8.1966138163,-4.3884366484,2.9359933301999996,91
84345,194654,206842,8.1188470818,-4.4291146326,2.9874390161,92
84491,194683,206879,8.1678999451,-4.4721854394000005,2.8785655878,93
84655,194719,206944,8.1655071225,-4.4039899953,3.0269205889999995,94
84847,194839,207000,8.1224363157,-4.3860438258,3.0269205889999995,95
85027,194900,207012,8.124829138299999,-4.438685923,3.0687949845,96
85209,194957,207078,8.0374911134,-4.3884366484,2.9575287336000002,97
85203,194974,207122,8.062615750700001,-4.5320060043999995,3.062812928,98
84669,194883,207099,8.099704501,-4.4458643908,2.9144579268,99
83886,194670,206957,8.051848049,-4.3956151162,2.7912275628999996,100
83264,194447,206811,8.0374911134,-4.2568314054,3.0077780082,101
82901,194219,206751,8.115257847899999,-4.390829471,3.014956476,102
82703,194080,206694,8.160721477300001,-4.4111684631,3.0448667585,103
82709,194070,206634,8.0291162343,-4.3645084224,2.9718856692,104
82867,194108,206693,8.1583286547,-4.378865358,3.0173492985999997,105
83060,194138,206663,8.0662049846,-4.4195433422,2.9407789753999998,106
83203,194220,206737,8.0255270004,-4.3836510032,3.0245277664,107
83340,194246,206723,8.026723411699999,-4.3010986235,3.038884702,108
83383,194296,206740,8.0063844196,-4.3932222936,2.8689942974,109
83502,194332,206823,7.9776705484,-4.4973100767,3.0544380489000003,110
83626,194357,206807,8.1080793801,-4.4841495524,3.0580272828,111
83780,194449,206832,8.0183485326,-4.258027816699999,2.9754749031,112
83988,194504,206877,8.2061851067,-4.4757746733,3.0364918793999998,113
84195,194584,206943,7.8975109913,-4.4339002778,3.0305098229,114
84400,194628,206974,8.017152121299999,-4.30708068,2.9862426048,115
84616,194710,207064,8.1104722027,-4.4255253987,3.0053851856000002,116
84808,194791,207124,8.2372918005,-4.3178483817,2.9826533709,117
84920,194858,207173,8.2420774457,-4.3980079388,3.0508488149999997,118
84520,194777,207139,8.0207413552,-4.3860438258,2.9072794589999997,119
83795,194578,207025,8.1487573643,-4.5164526575,3.0460631697999996,120
83191,194292,206925,8.0602229281,-4.3226340269,2.9886354273999998,121
82883,194134,206861,8.1092757914,-4.3956151162,3.0508488149999997,122
82757,194062,206802,8.1200434931,-4.3154555591,3.0376882907,123
82812,194044,206752,8.1332040174,-4.4578285038,2.9958138952,124
83007,194035,206771,8.0303126456,-4.4673997942,3.0891339766000003,125
83244,194094,206788,8.1774712355,-4.414757697,2.9718856692,126
83302,194163,206851,8.1044901462,-4.382454591899999,2.9240292172,127
83498,194162,206837,8.13559684,-4.4111684631,3.0412775246,128
83634,194207,206868,8.0805619202,-4.3106699139,3.0687949845,129
83782,194234,206893,8.044669581199999,-4.3645084224,2.9108686929000003,130
83936,194303,206915,8.1344004287,-4.4721854394000005,3.0927232105,131
84105,194387,206961,8.061419339399999,-4.3692940676,2.9527430884,132
84306,194432,207028,8.111668614,-4.3956151162,3.0747770410000004,133
84536,194516,207065,8.1056865575,-4.42672181,3.0029923629999997,134
84756,194556,207070,8.115257847899999,-4.3836510032,3.0412775246,135
84973,194644,207152,8.1678999451,-4.4434715682,3.0257241777000004,136
85193,194758,207224,8.102097323599999,-4.450650036,2.9958138952,137
85413,194810,207264,7.9764741371,-4.4004007614,3.1250263156,138
85468,194854,207307,8.155935832099999,-4.353740720699999,3.0065815969000003,139
85116,194757,207248,8.027919823,-4.4303110439,2.9682964353,140
84667,194544,207158,8.1918281711,-4.387240237099999,3.0065815969000003,141
84370,194295,207137,8.039883936,-4.3645084224,3.0963124444,142
84270,194201,206999,8.1846497033,-4.3740797127999995,3.0484559924,143
84284,194217,206996,8.044669581199999,-4.3728833015,3.0281170003,144
84393,194177,207019,8.0961152671,-4.342973019,2.9766713144,145
84598,194201,206999,8.102097323599999,-4.492524431500001,3.0759734523,146
84767,194248,207012,8.0650085733,-4.3764725354000005,2.9479574432,147
84911,194330,207038,8.1320076061,-4.3226340269,3.0771698636,148
85023,194318,207023,8.2301133327,-4.4410787456,3.0364918793999998,149
85196,194350,207083,8.0662049846,-4.5188454800999995,2.9084758702999998,150
85294,194391,207080,8.0769726863,-4.3860438258,3.0807590974999997,151
85465,194455,207127,8.0793655089,-4.2819560427,3.0340990568,152
85626,194492,207164,8.087740388,-4.2687955184,3.0376882907,153
85865,194552,207192,8.074579863699999,-4.4434715682,3.0616165167,154
86039,194615,207238,8.049455226400001,-4.3716868902,3.0053851856000002,155
86217,194696,207269,8.2229348649,-4.42672181,3.0819555088,156
86413,194749,207337,8.1978102276,-4.3884366484,3.038884702,157
86521,194799,207363,8.0458659925,-4.3250268494999995,3.1310083721,158
86393,194759,207356,7.9992059518000005,-4.390829471,2.9850461935,159
85998,194517,207244,8.1260255496,-4.4937208428,3.0604201053999995,160
85746,194265,207133,8.061419339399999,-4.4051864066,3.0173492985999997,161
85594,194105,207082,8.129614783500001,-4.4075792292,3.0771698636,162
85561,194070,207043,8.1726855903,-4.4554356812,3.0544380489000003,163
85600,194020,206976,8.0781690976,-4.4087756405,3.0604201053999995,164
85729,194036,207009,8.0925260332,-4.510470601,3.0173492985999997,165
85893,194063,207022,8.0829547428,-4.3178483817,2.9934210726,166
86017,194160,207051,7.9764741371,-4.3345981399,2.9515466771,167
86126,194167,207030,8.1188470818,-4.42672181,3.0101708308,168
86217,194224,207071,8.1463645417,-4.3621155998,2.9778677257000004,169
86353,194277,207093,8.1044901462,-4.2281175342,3.0317062341999996,170
86512,194309,207109,8.0255270004,-4.5008993106,3.0532416376,171
86637,194383,207142,8.2157563971,-4.3453658416,2.9934210726,172
86816,194429,207134,8.137989662599999,-4.4291146326,3.014956476,173
86977,194500,207221,8.1391860739,-4.3680976563,3.0544380489000003,174
87181,194584,207278,7.9585279676,-4.3154555591,2.9407789753999998,175
87335,194650,207349,8.1308111948,-4.3513478981,3.0293134116,176
87489,194716,207332,8.1188470818,-4.378865358,3.0532416376,177
87536,194759,207379,7.9417782094,-4.4279182213,2.9946174839,178
87286,194633,207313,8.0099736535,-4.2915273330999995,3.0113672421,179
86953,194397,207194,8.267202082999999,-4.4111684631,3.0233313551,180
86624,194190,207107,8.0015987744,-4.415954108299999,3.0759734523,181
86559,194019,207036,8.0961152671,-4.527220359199999,3.0101708308,182
86509,193938,206952,8.049455226400001,-4.4398823343,2.9766713144,183
86545,193913,206905,8.1224363157,-4.4171505196,3.0161528873,184
86630,193969,206948,8.1810604694,-4.4518464473,3.0640093393,185
86765,194010,206964,8.0075808309,-4.3716868902,2.9431717980000003,186
86851,194018,207006,8.0542408716,-4.4590249151000005,3.0711878071,187
86934,194047,206972,8.182256880699999,-4.354937132,2.9168507494,188
87025,194087,206986,8.1583286547,-4.4362931003999995,3.1525437755,189
87113,194176,207012,8.1463645417,-4.4374895117,3.0029923629999997,190
87221,194213,207026,8.1774712355,-4.4195433422,3.0125636533999995,191
87354,194254,207120,8.0853475654,-4.4793639072,3.0412775246,192
87493,194337,207132,8.0482588151,-4.4841495524,3.0532416376,193
87630,194416,207206,8.1415788965,-4.342973019,2.9527430884,194
87790,194514,207236,8.051848049,-4.2484565263,2.8773691765,195
87915,194552,207271,7.992027484,-4.3956151162,2.9934210726,196
88110,194652,207319,8.1774712355,-4.3597227772,2.9647072014,197
88210,194717,207356,8.1583286547,-4.4673997942,2.9814569596,198
88121,194747,207391,8.0542408716,-4.4195433422,3.0424739359,199
87778,194540,207280,8.0685978072,-4.3369909625,2.9527430884,200
87405,194263,207132,8.0674013959,-4.390829471,3.0424739359,201
87119,194079,207054,8.0063844196,-4.3334017286,3.0245277664,202
86941,193953,206991,8.1631142999,-4.3154555591,2.9479574432,203
86842,193902,206919,7.942974620699999,-4.450650036,2.9694928465999997,204
86861,193904,206911,8.1188470818,-4.347758664200001,3.0735806297,205
86927,193922,206939,8.1104722027,-4.4051864066,3.0975088557,206
86997,193996,206974,8.1391860739,-4.4075792292,3.0807590974999997,207
87028,194035,206979,7.998009540499999,-4.331008906,3.0329026454999997,208
87074,194059,207004,8.0554372829,-4.3250268494999995,2.9336005076,209
87128,194093,206985,8.0733834524,-4.319044793,3.0029923629999997,210
87196,194121,207037,8.0350982908,-4.4339002778,3.0125636533999995,211
87285,194177,207037,8.0590265168,-4.4494536247,2.9826533709,212
87378,194208,207080,8.1188470818,-4.4243289874,3.0053851856000002,213
87532,194311,207108,8.0542408716,-4.5332024157,3.0424739359,214
87619,194352,207132,8.0183485326,-4.4207397534999995,3.0735806297,215
87758,194467,207216,8.1427753078,-4.4315074552,3.0400811133000003,216
87878,194555,207289,8.0697942185,-4.3130627365,2.9575287336000002,217
88004,194643,207294,8.0207413552,-4.4602213264,2.9982067177999996,218
88137,194698,207421,8.123632727,-4.3058842687,3.0329026454999997,219
88176,194780,207423,8.1439717191,-4.4087756405,2.9204399833,220
87875,194745,207366,8.159525066,-4.4339002778,2.919243572,221
87393,194478,207300,8.0973116784,-4.4279182213,3.0448667585,222
86929,194160,207169,8.0650085733,-4.3597227772,3.0317062341999996,223
86617,194044,207084,8.0805619202,-4.4518464473,2.9383861528,224
86429,193962,206993,8.1942209937,-4.3848474145,3.0029923629999997,225
86349,193923,206951,8.1882389372,-4.498506487999999,2.9347969189,226
86399,193925,206981,8.0542408716,-4.320241204299999,3.0424739359,227
86440,194023,206964,8.0829547428,-4.4362931003999995,3.0125636533999995,228
86457,194045,206985,8.0063844196,-4.4662033829,2.9647072014,229
86440,194024,206998,8.1870425259,-4.2987058009,3.0604201053999995,230
86432,194089,207023,7.969295669299999,-4.4099720518000005,2.9359933301999996,231
86430,194131,206992,8.099704501,-4.5152562462,3.0592236941,232
86459,194138,207044,8.1344004287,-4.4697926167999995,2.9886354273999998,233
86547,194176,207061,8.0781690976,-4.4315074552,3.0293134116,234
86632,194239,207079,8.1631142999,-4.4697926167999995,3.0352954681,235
86743,194303,207137,8.039883936,-4.4183469309,3.0436703472,236
86862,194384,207195,8.1942209937,-4.3764725354000005,3.0927232105,237
86947,194443,207261,8.0805619202,-4.4243289874,3.0604201053999995,238
87104,194565,207247,8.1511501869,-4.4398823343,3.0436703472,239
87162,194561,207312,8.1332040174,-4.5080777784,3.0364918793999998,240
86848,194571,207325,8.062615750700001,-4.474578262,2.9694928465999997,241
86420,194372,207225,8.0063844196,-4.4075792292,2.9407789753999998,242
85764,194101,207075,8.173882001600001,-4.2843488653,3.0317062341999996,243
85342,193930,206971,8.2217384536,-4.4099720518000005,3.0556344602,244
85097,193812,206927,8.0685978072,-4.4063828179,2.9766713144,245
84961,193779,206866,8.2061851067,-4.3752761241,3.1094729686999996,246
84998,193764,206855,8.13559684,-4.4123648744,3.0029923629999997,247
85062,193802,206910,8.0147592987,-4.5200418914,2.9934210726,248
85089,193849,206902,8.123632727,-4.3932222936,3.0951160330999996,249
85096,193856,206918,8.1320076061,-4.3728833015,2.9599215562,250
85100,193878,206924,7.9740813145,-4.3812581806,2.8989045799,251
85103,193922,206960,8.044669581199999,-4.4111684631,3.0544380489000003,252
85145,193895,206965,8.063812162,-4.465006971599999,2.9826533709,253
85229,193956,206976,8.1128650253,-4.4279182213,3.0233313551,254
85360,194006,207002,8.0374911134,-4.4207397534999995,2.8989045799,255
85455,194089,207051,8.005188008300001,-4.3884366484,2.9718856692,256
85596,194135,207083,8.039883936,-4.3357945512,3.0077780082,257
85742,194245,207156,8.039883936,-4.4470608021,3.0173492985999997,258
85885,194270,207159,8.115257847899999,-4.4339002778,3.0723842184,259
85831,194344,207235,7.928617685100001,-4.4051864066,3.0125636533999995,260
85310,194182,207145,8.005188008300001,-4.3621155998,2.9383861528,261
84580,193925,207032,8.182256880699999,-4.4195433422,3.0317062341999996,262
83984,193612,206896,8.1547394208,-4.4075792292,2.9958138952,263
83632,193480,206796,8.1260255496,-4.3932222936,3.0723842184,264
83437,193374,206736,8.1128650253,-4.3776689467,2.9970103065,265
83429,193307,206741,8.0291162343,-4.2795632201,2.9826533709,266
83556,193352,206734,8.1463645417,-4.4183469309,3.0532416376,267
83662,193400,206785,7.9262248625,-4.4135612857,3.0269205889999995,268
83757,193462,206798,8.124829138299999,-4.3633120111,3.1022945009000003,269
83815,193469,206836,8.2660056717,-4.4398823343,3.0675985732,270
83906,193505,206799,8.2037922841,-4.5008993106,3.0221349438,271
83989,193580,206881,7.984849016199999,-4.3716868902,3.0005995404,272
84110,193620,206914,8.0327054682,-4.4518464473,2.9766713144,273
84253,193683,206968,8.182256880699999,-4.4075792292,3.0340990568,274
84424,193715,206994,8.1320076061,-4.4087756405,2.9647072014,275
84610,193847,207044,7.9716884919,-4.4291146326,3.0496524037,276
84800,193895,207109,8.0303126456,-4.4362931003999995,3.0005995404,277
84970,194011,207133,8.1391860739,-4.402793583999999,2.979064137,278
85165,194101,207189,8.123632727,-4.3585263658999995,2.9455646206,279
85305,194175,207281,8.0793655089,-4.5595234643,3.1046873235,280
85031,194129,207259,8.1080793801,-4.3417766077,2.9575287336000002,281
84334,193888,207186,8.1487573643,-4.4195433422,2.8785655878,282
83696,193551,206983,8.1403824852,-4.4422751569,3.0508488149999997,283
83270,193361,206873,8.1308111948,-4.4315074552,2.9886354273999998,284
83081,193240,206858,8.0315090569,-4.4673997942,2.9575287336000002,285
82962,193129,206781,8.044669581199999,-4.4841495524,3.0077780082,286
83102,193128,206763,7.9752777258,-4.2508493489,3.0376882907,287
83282,193232,206764,8.063812162,-4.5008993106,3.0580272828,288
83464,193282,206823,8.057830105499999,-4.4051864066,3.014956476,289
83553,193292,206854,8.1367932513,-4.3812581806,2.9742784918,290
83686,193373,206931,8.0219377665,-4.4315074552,3.0759734523,291
83780,193397,206966,8.044669581199999,-4.4315074552,2.9742784918,292
83921,193462,206924,8.0853475654,-4.3154555591,3.0508488149999997,293
84070,193539,206984,8.0207413552,-4.4578285038,3.0879375653000003,294
84235,193570,207054,8.0650085733,-4.4004007614,3.0125636533999995,295
84456,193676,207039,8.1128650253,-4.4303110439,2.9443682093000003,296
84645,193765,207116,8.0901332106,-4.4362931003999995,3.0053851856000002,297
84855,193853,207161,8.0291162343,-4.3728833015,2.9862426048,298
85061,193932,207223,8.087740388,-4.4518464473,3.0747770410000004,299
85264,194057,207267,8.01595571,-4.415954108299999,3.1022945009000003,300
85451,194103,207313,8.1367932513,-4.347758664200001,3.0340990568,301
85486,194167,207379,8.1200434931,-4.414757697,2.9347969189,302
85061,194033,207313,7.986045427500001,-4.4434715682,2.8821548217,303
84453,193765,207195,8.124829138299999,-4.3417766077,3.0065815969000003,304
84003,193519,207041,8.1056865575,-4.2939201557,3.0675985732,305
83760,193315,206920,8.0506516377,-4.4530428586,2.9982067177999996,306
83580,193226,206899,8.1272219609,-4.4889351976,2.883351233,307
83746,193210,206863,8.074579863699999,-4.353740720699999,2.9168507494,308
83861,193245,206922,8.1032937349,-4.4673997942,3.0520452262999997,309
84038,193314,206880,7.9752777258,-4.3740797127999995,3.0017959517,310
84184,193374,206978,8.116454259200001,-4.3980079388,2.8797619991,311
84337,193407,206975,8.0733834524,-4.3393837851,2.9898318387,312
84400,193445,207029,7.942974620699999,-4.3286160834,3.0412775246,313
84526,193501,207059,8.084151154099999,-4.3274196721000004,3.1130622026,314
84662,193560,207058,8.0015987744,-4.4315074552,3.0436703472,315
84812,193614,207083,8.0470624038,-4.4171505196,2.9647072014,316
84998,193708,207114,8.003991596999999,-4.3513478981,3.0376882907,317
85186,193772,207176,8.049455226400001,-4.4841495524,3.0616165167,318
85373,193876,207230,8.099704501,-4.3585263658999995,2.979064137,319
85568,193927,207306,8.1750784129,-4.3728833015,3.0580272828,320
85728,194067,207305,8.2133635745,-4.3417766077,2.967100024,321
85937,194094,207402,8.017152121299999,-4.42672181,3.0329026454999997,322
86101,194221,207421,8.061419339399999,-4.2604206393,3.1334011947,323
86129,194262,207495,8.084151154099999,-4.4063828179,3.0843483314,324
85763,194156,207410,7.9190463947000005,-4.4219361648,3.0077780082,325
85288,193883,207254,8.0769726863,-4.402793583999999,3.0687949845,326
84917,193641,207163,8.063812162,-4.4458643908,2.9611179675,327
84735,193490,207102,8.1678999451,-4.3716868902,3.0125636533999995,328
84677,193487,207082,8.111668614,-4.5296131818,2.9491538545,329
84739,193475,207068,8.1200434931,-4.354937132,2.9599215562,330
84873,193495,207093,8.0350982908,-4.2532421715,2.9383861528,331
85003,193571,207119,8.01595571,-4.4171505196,3.0221349438,332
85082,193635,207128,8.049455226400001,-4.4075792292,3.0317062341999996,333
85134,193641,207101,8.0542408716,-4.4004007614,3.0269205889999995,334
85213,193679,207158,8.0817583315,-4.4219361648,2.9862426048,335
85286,193691,207172,8.1320076061,-4.4662033829,2.9958138952,336
85429,193725,207153,8.039883936,-4.3334017286,3.0556344602,337
85475,193784,207214,8.1068829688,-4.5152562462,3.0101708308,338
85684,193869,207179,8.1535430095,-4.3501514868,2.9886354273999998,339
85852,193975,207325,8.2037922841,-4.3154555591,3.0532416376,340
86006,194034,207339,8.0374911134,-4.4195433422,3.0209385325,341
86154,194105,207326,8.1224363157,-4.4889351976,3.0221349438,342
86373,194173,207385,8.0015987744,-4.390829471,2.9575287336000002,343
86419,194257,207493,8.0590265168,-4.4889351976,3.0795626862,344
86233,194266,207451,8.0255270004,-4.331008906,2.8881368781999996,345
85673,194017,207350,8.0925260332,-4.4961136654,2.9838497821999996,346
85112,193719,207189,8.129614783500001,-4.3692940676,3.0556344602,347
84732,193512,207101,8.1128650253,-4.4123648744,3.0939196218,348
84512,193385,207001,7.9716884919,-4.3621155998,3.0412775246,349
84407,193352,206995,8.0015987744,-4.4243289874,3.0496524037,350
84508,193356,206979,8.1499537756,-4.4793639072,2.9742784918,351
84536,193391,206965,8.0303126456,-4.3369909625,2.9120651042,352
84604,193408,207025,8.1080793801,-4.527220359199999,2.9982067177999996,353
84628,193439,207058,8.1104722027,-4.3405801963999995,3.0460631697999996,354
84659,193412,207039,8.0590265168,-4.438685923,2.9730820805000002,355
84726,193521,207052,8.074579863699999,-4.3369909625,3.0125636533999995,356
84797,193524,207063,8.1009009123,-4.4482572134,3.0340990568,357
84892,193627,207109,8.1655071225,-4.4482572134,2.9862426048,358
85036,193692,207128,8.2241312762,-4.3274196721000004,3.0041887742999998,359
85188,193733,207199,8.1415788965,-4.4410787456,3.0269205889999995,360
85347,193791,207198,8.0805619202,-4.4135612857,3.0221349438,361
85490,193901,207260,7.9489566772,-4.4315074552,3.0460631697999996,362
85652,193954,207316,8.1750784129,-4.3896330597,3.038884702,363
85747,194012,207336,8.0973116784,-4.4279182213,3.0687949845,364
85366,193967,207318,8.075776275,-4.498506487999999,2.9623143788,365
84634,193680,207177,7.980063371,-4.3489550755,2.9874390161,366
83999,193366,207039,8.0554372829,-4.4362931003999995,3.0664021618999997,367
83527,193160,206910,8.1774712355,-4.3980079388,3.0077780082,368
83287,193023,206836,8.0949188558,-4.2891345105,2.9587251449000003,369
83164,192953,206804,8.1655071225,-4.4171505196,3.0364918793999998,370
83210,192958,206821,8.0781690976,-4.3812581806,3.0807590974999997,371
83358,192991,206819,7.9669028467,-4.4123648744,3.0197421212,372
83479,193066,206885,8.0219377665,-4.3393837851,3.0556344602,373
83532,193118,206866,8.01595571,-4.4769710846,3.0436703472,374
83643,193166,206923,8.2109707519,-4.3956151162,3.0065815969000003,375
83733,193208,206951,8.0674013959,-4.3513478981,3.0484559924,376
83851,193256,206983,8.2289169214,-4.3896330597,3.1022945009000003,377
83993,193312,206985,8.128418372199999,-4.3944187049,2.9706892578999997,378
84151,193363,207104,8.123632727,-4.4937208428,2.9838497821999996,379
84343,193489,207087,7.9992059518000005,-4.3752761241,2.9718856692,380
84525,193575,207204,8.0590265168,-4.4219361648,3.0364918793999998,381
84722,193661,207211,8.2037922841,-4.42672181,3.0484559924,382
84897,193748,207256,8.0817583315,-4.4410787456,3.0340990568,383
85100,193842,207369,8.1104722027,-4.4697926167999995,3.0508488149999997,384
85146,193937,207366,8.0470624038,-4.4291146326,3.0843483314,385
84713,193791,207337,8.0913296219,-4.5367916496,2.9742784918,386
83932,193528,207201,8.0889367993,-4.3920258823,3.0364918793999998,387
83288,193228,206980,8.1080793801,-4.3609191885,2.9694928465999997,388
82895,192998,206915,8.0315090569,-4.5008993106,3.0951160330999996,389
82711,192914,206828,8.074579863699999,-4.5487557626,3.0879375653000003,390
82702,192847,206774,8.0255270004,-4.382454591899999,2.9934210726,391
82824,192864,206793,8.070990629799999,-4.4590249151000005,3.1429724850999996,392
83008,192926,206865,8.1487573643,-4.3166519704,3.0221349438,393
83139,192993,206919,8.049455226400001,-4.4183469309,3.0891339766000003,394
83310,193049,206907,7.992027484,-4.2675991071,3.0317062341999996,395
83390,193108,206951,8.1092757914,-4.3992043501,3.0269205889999995,396
83507,193147,207010,8.1056865575,-4.3345981399,3.0221349438,397
83622,193184,206993,8.0865439767,-4.4183469309,3.0915267992,398
83809,193239,207074,8.1391860739,-4.474578262,2.9850461935,399
84005,193360,207108,8.1332040174,-4.415954108299999,2.9874390161,400
84182,193409,207158,8.0123664761,-4.4446679795,3.0436703472,401
84412,193500,207243,8.0183485326,-4.3752761241,2.9982067177999996,402
84613,193634,207276,8.1667035338,-4.4769710846,3.0508488149999997,403
84817,193703,207356,8.1320076061,-4.3094735026,3.0807590974999997,404
85032,193810,207372,8.123632727,-4.4614177377,3.0209385325,405
85233,193881,207419,8.102097323599999,-4.450650036,3.0831519201,406
85313,194020,207444,7.9992059518000005,-4.3776689467,3.0005995404,407
84943,193938,207460,8.0027951857,-4.4243289874,2.9599215562,408
84239,193633,207281,8.1547394208,-4.3034914461,2.9814569596,409
83653,193389,207176,8.062615750700001,-4.3633120111,3.1034909122000003,410
83347,193187,207061,8.057830105499999,-4.3597227772,3.0364918793999998,411
83178,193080,207015,7.9872418388,-4.5044885445,3.0412775246,412
83254,193097,206986,8.075776275,-4.465006971599999,3.1453653077,413
83398,193093,206997,7.8927253461,-4.3298124947,3.0604201053999995,414
83565,193169,207026,8.0135628874,-4.4279182213,3.0664021618999997,415
83694,193223,207055,8.0901332106,-4.4721854394000005,3.0759734523,416
83789,193278,207087,8.0805619202,-4.4339002778,3.014956476,417
83864,193297,207111,8.1080793801,-4.2915273330999995,3.0101708308,418
83984,193369,207127,8.0985080897,-4.5212383027000005,3.0484559924,419
84095,193409,207163,8.0243305891,-4.3657048337,3.0783662749,420
84248,193444,207170,8.1882389372,-4.4482572134,3.0340990568,421
84415,193525,207233,8.0590265168,-4.3214376156,3.1022945009000003,422
84599,193570,207279,8.1511501869,-4.3884366484,3.0412775246,423
84764,193663,207341,7.9932238953,-4.4291146326,2.9587251449000003,424
84964,193738,207337,8.0374911134,-4.4015971727,3.1286155494999996,425
85147,193841,207460,8.1631142999,-4.4458643908,3.0245277664,426
85343,193959,207481,8.0566336942,-4.378865358,3.0807590974999997,427
85450,194046,207555,8.0949188558,-4.5415772948,3.0915267992,428
85176,193966,207490,8.0829547428,-4.4171505196,3.014956476,429
84527,193705,207397,8.1535430095,-4.3812581806,3.0520452262999997,430
83934,193385,207265,8.0805619202,-4.4219361648,3.098705267,431
83612,193229,207124,7.9824561936,-4.4841495524,2.9443682093000003,432
83457,193137,207068,8.1009009123,-4.3573299546,3.1692935337,433
83440,193107,207021,7.9872418388,-4.4315074552,3.0065815969000003,434
83574,193130,207036,8.0685978072,-4.3932222936,3.0819555088,435
83736,193198,207053,8.039883936,-4.378865358,2.9647072014,436
83899,193212,207093,8.1188470818,-4.4602213264,3.0173492985999997,437
83885,193254,207125,8.0985080897,-4.4889351976,3.0675985732,438
84054,193296,207160,8.116454259200001,-4.4051864066,2.9623143788,439
84149,193310,207189,8.0865439767,-4.4135612857,3.0687949845,440
84211,193351,207210,8.0949188558,-4.3920258823,3.0652057506,441
84361,193414,207224,8.0685978072,-4.4362931003999995,3.0317062341999996,442
84531,193461,207240,8.0973116784,-4.4602213264,3.0125636533999995,443
84681,193542,207298,8.1080793801,-4.3118663252,3.0999016782999997,444
84847,193610,207333,8.061419339399999,-4.3645084224,3.014956476,445
85028,193700,207375,8.160721477300001,-4.4434715682,3.0496524037,446
85198,193787,207435,8.0781690976,-4.3405801963999995,3.0173492985999997,447
85339,193865,207503,8.2229348649,-4.5248275366,3.1010980895999998,448
85105,193840,207525,8.0985080897,-4.4877387863000004,3.0245277664,449
84449,193612,207359,7.992027484,-4.3633120111,2.9647072014,450
83768,193257,207144,8.0925260332,-4.465006971599999,3.0173492985999997,451
83305,193048,207004,8.1918281711,-4.5595234643,3.1262227269,452
83044,192936,207003,8.027919823,-4.4183469309,2.9431717980000003,453
82906,192861,206923,8.01595571,-4.5248275366,3.038884702,454
83038,192841,206909,8.1415788965,-4.5188454800999995,2.9934210726,455
83220,192883,206966,8.0937224445,-4.3345981399,3.0711878071,456
83368,192918,207018,8.0183485326,-4.4769710846,3.1357940173,457
83478,193009,207010,8.0769726863,-4.3884366484,3.0005995404,458
83564,193002,207038,8.039883936,-4.465006971599999,3.0532416376,459
83663,193068,207082,8.147560953,-4.3956151162,3.0544380489000003,460
83778,193117,207116,8.1009009123,-4.4542392699,3.0771698636,461
83926,193190,207115,8.102097323599999,-4.387240237099999,3.0640093393,462
84102,193269,207168,7.9836526049,-4.3812581806,3.1154550251999997,463
84279,193316,207224,8.0685978072,-4.4327038665,3.0592236941,464
84459,193407,207269,8.0063844196,-4.3932222936,3.086741154,465
84641,193465,207359,7.9884382501,-4.387240237099999,3.0053851856000002,466
84840,193639,207408,8.0422767586,-4.4841495524,3.0185457098999997,467
85039,193692,207435,8.051848049,-4.3716868902,3.0364918793999998,468
85104,193757,207477,8.074579863699999,-4.462614149,3.098705267,469
84641,193639,207424,7.9130643382,-4.3692940676,3.0053851856000002,470
83898,193350,207274,8.070990629799999,-4.4877387863000004,3.0496524037,471
83244,193017,207107,8.087740388,-4.450650036,3.1429724850999996,472
82853,192805,207012,8.0817583315,-4.4697926167999995,2.9958138952,473
82640,192699,206965,8.129614783500001,-4.4207397534999995,2.9958138952,474
82593,192651,206858,7.8807612331,-4.4015971727,3.0209385325,475
82724,192683,206876,8.074579863699999,-4.4123648744,3.0269205889999995,476
82939,192728,206933,8.084151154099999,-4.3034914461,3.0831519201,477
83093,192798,206977,7.9788669596999995,-4.3298124947,3.1393832512,478
83213,192814,206970,7.9788669596999995,-4.382454591899999,3.0771698636,479
83311,192873,207022,8.1212399044,-4.5595234643,2.99102825,480
83438,192956,207046,7.9824561936,-4.387240237099999,2.9838497821999996,481
83559,193029,207041,8.1009009123,-4.4291146326,2.967100024,482
83706,193059,207136,8.1367932513,-4.4362931003999995,3.0484559924,483
83906,193118,207153,8.0135628874,-4.3860438258,3.0101708308,484
84085,193211,207203,7.9908310727,-4.465006971599999,3.0484559924,485
84285,193245,207270,8.0685978072,-4.450650036,3.0340990568,486
84498,193368,207331,8.2695949056,-4.4004007614,3.0927232105,487
84722,193484,207403,8.0231341778,-4.4769710846,2.9838497821999996,488
84907,193619,207476,8.0793655089,-4.4638105603,3.0436703472,489
85112,193694,207543,8.0542408716,-4.3920258823,3.1525437755,490
85182,193795,207503,7.9992059518000005,-4.582255279,3.1334011947,491
84750,193683,207489,7.969295669299999,-4.3716868902,2.8534409504999996,492
83976,193347,207327,8.170292767700001,-4.4039899953,2.9647072014,493
83335,193058,207177,8.0937224445,-4.366901245,3.0460631697999996,494
82952,192846,207051,7.992027484,-4.5020957219,3.1010980895999998,495
82777,192736,207013,7.920242806,-4.4518464473,3.0927232105,496
82763,192653,206977,8.1140614366,-4.4542392699,3.0029923629999997,497
82904,192722,206939,7.9716884919,-4.353740720699999,3.1238299043,498
83109,192824,207005,7.9585279676,-4.4171505196,3.0604201053999995,499
83273,192826,207043,8.1367932513,-4.5092741897,2.979064137,500
108364,243402,264534,-9.207581364800001,3.3655049869,0.6604190376,710
108418,243375,264591,-9.1836531388,3.4887353508000003,0.8279166196,711
108572,243396,264559,-9.175278259699999,3.5270205124,0.7848458128,712
108448,243288,264488,-9.21236701,3.5198420446,0.71784678,713
108085,243234,264516,-9.2889373332,3.6837503927,0.7800601676,714
107599,243059,264466,-9.1704926145,3.5222348672,0.8123632727,715
107269,242998,264344,-9.330811728699999,3.4420753101,0.71784678,716
107159,242992,264321,-9.1130648721,3.493520996,0.789631458,717
107185,243070,264417,-9.2410808812,3.6119657146999997,0.8458627891,718
107337,243098,264418,-9.2853480993,3.421736318,0.789631458,719
107494,243124,264508,-9.2219383004,3.4265219632000004,0.8219345630999999,720
107617,243205,264459,-9.236295236,3.6023944243,0.7704888772,721
107608,243155,264515,-9.1609213241,3.4887353508000003,0.7836494015,722
107690,243167,264515,-9.2889373332,3.517449222,0.7884350467,723
107690,243143,264607,-9.1597249128,3.4313076084,0.7369893608,724
107730,243175,264456,-9.1740818484,3.6119657146999997,0.7274180704000001,725
107807,243231,264512,-9.2087777761,3.4983066412,0.693918554,726
107896,243235,264527,-9.1549392676,3.4372896648999998,0.7274180704000001,727
108002,243235,264560,-9.274580397600001,3.4492537779,0.7992027483999999,728
108105,243226,264554,-9.3032942688,3.4983066412,0.8135596839999999,729
108209,243311,264569,-9.188438784,3.3643085755999995,0.6520441585,730
108272,243297,264576,-9.165706969299999,3.4265219632000004,0.7357929495000001,731
108310,243301,264578,-9.2219383004,3.6502508763,0.7513462964000001,732
108428,243326,264623,-9.2279203569,3.3834511564,0.6843472636,733
108580,243300,264627,-9.2458665264,3.5593236175,0.8518448456000001,734
108654,243371,264641,-9.1980100744,3.5258241011,0.7549355303,735
108823,243394,264639,-9.0891366461,3.4875389395,0.6795616184,736
108882,243382,264694,-9.3224368496,3.3930224468000003,0.6556333924,737
109023,243445,264656,-9.3164547931,3.5066815203,0.7549355303,738
109155,243441,264715,-9.1609213241,3.4516466004999997,0.7704888772,739
109161,243461,264662,-9.2973122123,3.326023414,0.7609175868,740
109306,243496,264727,-9.2410808812,3.3894332128999998,0.7226324252,741
109427,243532,264649,-9.0125663229,3.3547372851999997,0.7082754896000001,742
109551,243542,264761,-9.2590270507,3.445664544,0.6699903279999999,743
109627,243528,264705,-9.207581364800001,3.4743784152000003,0.7513462964000001,744
109763,243584,264770,-9.0891366461,3.3320054705,0.71784678,745
109822,243597,264735,-9.1561356789,3.5401810367,0.6664010940999999,746
109988,243612,264734,-9.1704926145,3.4073793824000003,0.8410771438999999,747
110093,243626,264794,-9.207581364800001,3.4504501892,0.7561319416,748
110161,243638,264753,-9.3595255999,3.4564322457,0.7692924659,749
110311,243678,264794,-9.2829552767,3.4923245847,0.8410771438999999,750
110343,243617,264807,-9.207581364800001,3.3882368016,0.741775006,751
110204,243593,264758,-9.188438784,3.3499516399999996,0.8027919822999999,752
109807,243528,264709,-9.032905315,3.4265219632000004,0.7274180704000001,753
109384,243446,264684,-9.1920280179,3.3834511564,0.8219345630999999,754
109131,243351,264621,-9.2039921309,3.4444681327,0.8231309743999999,755
109014,243393,264621,-9.21236701,3.5772697869999996,0.8267202082999999,756
109054,243425,264605,-9.242277292499999,3.5042886977,0.7704888772,757
109170,243478,264681,-9.108279226899999,3.5306097463,0.6807580296999999,758
109262,243473,264673,-9.188438784,3.4408788988000003,0.789631458,759
109366,243492,264698,-9.1992064857,3.4265219632000004,0.7597211755,760
109404,243492,264705,-9.1848495501,3.5210384559,0.8219345630999999,761
109390,243494,264708,-9.178867493599999,3.3643085755999995,0.7752745223999999,762
109382,243512,264658,-9.2697947524,3.46959277,0.7836494015,763
109382,243492,264650,-9.2255275343,3.3882368016,0.7034898444000001,764
109476,243494,264686,-9.3463650756,3.3798619225,0.8075776275,765
109507,243523,264649,-9.355936366,3.4516466004999997,0.7274180704000001,766
109606,243549,264721,-9.3260260835,3.4971102299,0.8650053699,767
109667,243552,264677,-9.3212404383,3.493520996,0.9068797654,768
109780,243598,264667,-9.260223461999999,3.5497523270999998,0.7082754896000001,769
109760,243576,264675,-9.0903330574,3.4360932536,0.7692924659,770
109625,243509,264679,-9.1357966868,3.4875389395,0.7645068207,771
109321,243438,264630,-9.2697947524,3.4504501892,0.7034898444000001,772
109016,243338,264603,-9.260223461999999,3.5162528107,0.7752745223999999,773
108825,243356,264571,-9.3463650756,3.4767712378,0.71784678,774
108801,243349,264643,-9.2458665264,3.5796626096,0.7369893608,775
108946,243357,264557,-9.1776710823,3.6311082955,0.8171489179,776
109064,243415,264632,-9.188438784,3.4743784152000003,0.7130611348,777
109088,243464,264657,-9.21236701,3.4923245847,0.7465606512,778
109334,243455,264602,-9.2937229784,3.5126635768,0.7082754896000001,779
109338,243478,264640,-9.3499543095,3.4791640604,0.8075776275,780
109426,243522,264738,-9.2219383004,3.4839497056,0.741775006,781
109490,243463,264675,-9.1417787433,3.4516466004999997,0.7369893608,782
109526,243504,264675,-9.2614198733,3.5688949079,0.8458627891,783
109638,243514,264716,-9.1298146303,3.4301111971,0.9224331123,784
109721,243553,264752,-9.2267239456,3.4983066412,0.6891329087999999,785
109837,243560,264729,-9.265009107200001,3.3798619225,0.7513462964000001,786
109950,243593,264746,-9.178867493599999,3.4743784152000003,0.71784678,787
110066,243639,264736,-9.2410808812,3.4791640604,0.7274180704000001,788
110135,243625,264735,-9.1704926145,3.5449666819,0.7800601676,789
110057,243538,264769,-9.3738825355,3.4133614389,0.8039883936,790
109727,243443,264683,-9.0699940653,3.4923245847,0.7561319416,791
109349,243403,264618,-9.178867493599999,3.4253255519,0.7214360139,792
109103,243369,264598,-9.1453679772,3.5030922864000003,0.7082754896000001,793
109010,243359,264653,-9.1369930981,3.4504501892,0.7369893608,794
109103,243344,264642,-9.2219383004,3.6598221666999997,0.8267202082999999,795
109167,243415,264683,-9.1980100744,3.5784661983,0.765703232,796
109325,243461,264681,-9.1417787433,3.46959277,0.7322037156,797
109504,243468,264708,-9.2027957196,3.4169506728,0.741775006,798
109614,243494,264687,-9.188438784,3.517449222,0.8458627891,799
109680,243501,264720,-9.178867493599999,3.5126635768,0.6891329087999999,800
109757,243506,264744,-9.2925265671,3.445664544,0.6987041992,801
109766,243554,264735,-9.162117735399999,3.5545379723,0.7322037156,802
109921,243550,264767,-9.2781696315,3.493520996,0.7752745223999999,803
109983,243563,264740,-9.1692962032,3.4839497056,0.7513462964000001,804
110132,243573,264765,-9.2793660428,3.541377448,0.7046862557000001,805
110226,243643,264812,-9.2171526552,3.4851461168999998,0.8123632727,806
110383,243620,264784,-9.236295236,3.5270205124,0.8135596839999999,807
110411,243684,264870,-9.188438784,3.5557343836,0.7034898444000001,808
110600,243682,264791,-9.3786681807,3.3786655112000004,0.789631458,809
110667,243702,264849,-9.284151688,3.6167513599,0.7226324252,810
110621,243641,264776,-9.1465643885,3.445664544,0.7752745223999999,811
110349,243595,264796,-9.2985086236,3.4169506728,0.741775006,812
110033,243534,264786,-9.2458665264,3.4923245847,0.7740781111,813
109799,243511,264724,-9.1609213241,3.4181470840999997,0.8183453291999999,814
109746,243483,264767,-9.265009107200001,3.290131075,0.6520441585,815
109828,243517,264741,-9.260223461999999,3.5126635768,0.8267202082999999,816
109989,243576,264818,-9.2267239456,3.3032915993,0.7513462964000001,817
110150,243601,264801,-9.1704926145,3.4803604716999996,0.7513462964000001,818
110269,243668,264856,-9.1704926145,3.4648071248,0.9032905315,819
110351,243659,264880,-9.1429751546,3.3320054705,0.7513462964000001,820
110482,243687,264865,-9.3463650756,3.3882368016,0.7465606512,821
110470,243705,264895,-9.2985086236,3.4313076084,0.7405785947,822
110573,243711,264829,-9.0987079365,3.4683963587,0.7884350467,823
110670,243711,264899,-9.2111705987,3.4600214796,0.7752745223999999,824
110757,243764,264913,-9.2937229784,3.4983066412,0.8566304908000001,825
110867,243757,264977,-9.260223461999999,3.4779676491,0.7465606512,826
110975,243811,264967,-9.21236701,3.5258241011,0.6269195211999999,827
111081,243816,264991,-9.2518485829,3.4121650276000004,0.7082754896000001,828
111170,243848,264981,-9.299705034899999,3.4743784152000003,0.7513462964000001,829
111320,243868,264949,-9.1549392676,3.4779676491,0.7944171031999999,830
111410,243866,265043,-9.2506521716,3.5700913192,0.7992027483999999,831
111521,243895,264968,-9.1465643885,3.3690942208,0.7609175868,832
111491,243902,264971,-9.0999043478,3.3690942208,0.8039883936,833
111288,243800,264968,-9.3690968903,3.4923245847,0.8470592004,834
110955,243748,264953,-9.2458665264,3.3535408739,0.7848458128,835
110673,243692,264870,-9.1932244292,3.4743784152000003,0.7884350467,836
110550,243680,264886,-9.274580397600001,3.5114671655,0.8123632727,837
110558,243702,264878,-9.1034935817,3.4839497056,0.7034898444000001,838
110698,243767,264939,-9.4133641084,3.5449666819,0.7082754896000001,839
110778,243756,264865,-9.2159562439,3.5928231339,0.8027919822999999,840
110902,243776,264895,-9.131011041599999,3.4492537779,0.8219345630999999,841
110949,243777,264909,-9.2027957196,3.5246276898,0.7369893608,842
110978,243802,264904,-9.260223461999999,3.4169506728,0.8027919822999999,843
110928,243772,264963,-9.2219383004,3.5162528107,0.9116654106,844
111031,243796,264910,-9.0999043478,3.5030922864000003,0.7465606512,845
111048,243834,264933,-9.284151688,3.5449666819,0.8793623055,846
111118,243839,264884,-9.1992064857,3.4408788988000003,0.7226324252,847
111163,243859,264949,-9.3212404383,3.5126635768,0.8506484343,848
111221,243849,264917,-9.3415794304,3.5724841418,0.7429714173,849
111316,243861,264957,-9.1238325738,3.4360932536,0.7429714173,850
111347,243875,264960,-9.0987079365,3.5018958750999998,0.8039883936,851
111457,243856,264970,-9.21236701,3.4839497056,0.6604190376,852
111537,243867,264957,-9.2506521716,3.5210384559,0.71784678,853
111571,243873,264926,-9.2697947524,3.5306097463,0.8267202082999999,854
111511,243847,264998,-9.188438784,3.5784661983,0.7800601676,855
111313,243740,264880,-9.2985086236,3.5210384559,0.8279166196,856
110891,243685,264853,-9.3607220112,3.4827532943,0.8554340795,857
110524,243627,264823,-9.2039921309,3.4085757937,0.7944171031999999,858
110309,243611,264749,-9.2793660428,3.4504501892,0.7704888772,859
110209,243614,264856,-9.2985086236,3.3738798660000002,0.7465606512,860
110275,243641,264800,-9.2039921309,3.4743784152000003,0.7465606512,861
110326,243644,264816,-9.178867493599999,3.493520996,0.7848458128,862
110390,243676,264776,-9.1334038642,3.5078779316,0.7130611348,863
110427,243699,264800,-9.3224368496,3.46959277,0.7082754896000001,864
110426,243738,264833,-9.2554378168,3.5306097463,0.6269195211999999,865
110379,243701,264876,-9.355936366,3.4073793824000003,0.7609175868,866
110395,243730,264868,-9.3930251163,3.4731820039,0.7465606512,867
110393,243707,264876,-9.1226361625,3.4683963587,0.7286144817,868
110450,243727,264855,-9.1704926145,3.46959277,0.7465606512,869
110497,243746,264824,-9.2398844699,3.5449666819,0.7369893608,870
110530,243782,264873,-9.2757768089,3.4073793824000003,0.7226324252,871
110621,243802,264883,-9.207581364800001,3.5114671655,0.8793623055,872
110676,243796,264920,-9.1692962032,3.2793633733,0.8087740388,873
110755,243790,264894,-9.247062937699999,3.4408788988000003,0.7142575461,874
110789,243834,264855,-9.1704926145,3.5306097463,0.8506484343,875
110869,243846,264904,-9.1034935817,3.4743784152000003,0.7992027483999999,876
110908,243816,264920,-9.1836531388,3.5030922864000003,0.6604190376,877
110949,243832,264884,-9.1465643885,3.4229327293,0.789631458,878
110844,243832,264852,-9.1573320902,3.5353953915,0.7561319416,879
110513,243743,264875,-9.1226361625,3.4803604716999996,0.7561319416,880
110018,243625,264758,-9.178867493599999,3.4265219632000004,0.7752745223999999,881
109603,243588,264778,-9.2554378168,3.4313076084,0.7597211755,882
109355,243514,264753,-9.2219383004,3.4923245847,0.7800601676,883
109316,243576,264708,-9.0939222913,3.5557343836,0.7465606512,884
109350,243610,264775,-9.3415794304,3.6646078119,0.7788637562999999,885
109410,243606,264759,-9.3260260835,3.5258241011,0.6999006105000001,886
109466,243630,264784,-9.3224368496,3.4073793824000003,0.765703232,887
109474,243660,264808,-9.055637129700001,3.5162528107,0.8685946038000001,888
109428,243596,264736,-9.2027957196,3.5353953915,0.8506484343,889
109396,243613,264750,-9.1274218077,3.5353953915,0.7932206919,890
109456,243617,264758,-9.2889373332,3.5162528107,0.8985048863,891
109452,243621,264804,-9.2410808812,3.5736805531,0.7692924659,892
109486,243625,264790,-9.0520478958,3.4073793824000003,0.7944171031999999,893
109504,243670,264757,-9.1322074529,3.4648071248,0.8925228298,894
109553,243655,264850,-9.1369930981,3.4791640604,0.8039883936,895
109641,243662,264789,-9.2889373332,3.5593236175,0.6699903279999999,896
109579,243718,264797,-9.2697947524,3.6442688197999997,0.693918554,897
109768,243736,264809,-9.1226361625,3.6311082955,0.7609175868,898
109826,243738,264813,-9.2781696315,3.4504501892,0.8123632727,899
109914,243765,264865,-9.1740818484,3.397808092,0.7561319416,900
109954,243758,264811,-9.2793660428,3.4779676491,0.7884350467,901
110054,243760,264835,-9.1704926145,3.5449666819,0.8757730716000001,902
110019,243767,264809,-9.1226361625,3.3559336964999997,0.6795616184,903
109828,243738,264817,-9.3068835027,3.6741791022999997,0.6747759731999999,904
109356,243593,264774,-9.3355973739,3.5976087790999998,0.7740781111,905
108950,243577,264768,-9.2446701151,3.4492537779,0.7944171031999999,906
108656,243508,264698,-9.2279203569,3.445664544,0.7944171031999999,907
108622,243489,264727,-9.2267239456,3.5018958750999998,0.71784678,908
108607,243551,264722,-9.3032942688,3.314059301,0.8039883936,909
108706,243578,264744,-9.2925265671,3.4875389395,0.7274180704000001,910
108781,243585,264733,-9.3260260835,3.5066815203,0.7046862557000001,911
108910,243631,264766,-9.0855474122,3.3367911156999996,0.8087740388,912
108912,243647,264808,-9.2171526552,3.4839497056,0.7226324252,913
108915,243610,264789,-9.2374916473,3.4025937372,0.8123632727,914
108915,243644,264769,-9.1549392676,3.5593236175,0.7082754896000001,915
108980,243660,264827,-9.2315095908,3.4600214796,0.789631458,916
109011,243706,264798,-9.274580397600001,3.4504501892,0.6089733517,917
109091,243698,264861,-9.2279203569,3.3690942208,0.7788637562999999,918
109178,243724,264841,-9.3367937852,3.4169506728,0.6855436748999999,919
109266,243736,264841,-9.207581364800001,3.5688949079,0.8458627891,920
109338,243752,264865,-9.340383019099999,3.493520996,0.7848458128,921
109428,243830,264895,-9.3643112451,3.4743784152000003,0.7513462964000001,922
109498,243811,264861,-9.1992064857,3.4839497056,0.741775006,923
109627,243825,264895,-9.0987079365,3.5066815203,0.7704888772,924
109692,243826,264834,-9.3176512044,3.4408788988000003,0.7992027483999999,925
109773,243844,264899,-9.3236332609,3.445664544,0.8422735552,926
109730,243826,264871,-9.265009107200001,3.4025937372,0.7465606512,927
109460,243743,264862,-9.265009107200001,3.4121650276000004,0.741775006,928
109062,243634,264747,-9.2315095908,3.4959138186,0.7082754896000001,929
