green,red,IR,acc_x,acc_y,acc_z,sample_index
83047,195375,206703,8.0817583315,-4.42672181,3.0616165167,1
82736,195216,206637,8.1224363157,-4.2747775749,3.0161528873,2
82606,195099,206647,8.1547394208,-4.3130627365,2.8642086522,3
82679,195065,206633,8.0925260332,-4.4901316089,2.9587251449000003,4
82876,195065,206603,8.1140614366,-4.3812581806,2.9718856692,5
83078,195092,206638,8.183453292,-4.4793639072,3.0125636533999995,6
83248,195125,206650,8.262416437799999,-4.4721854394000005,2.9359933301999996,7
83342,195122,206723,8.1918281711,-4.3633120111,3.0017959517,8
83474,195188,206744,7.969295669299999,-4.3334017286,2.9575287336000002,9
83589,195209,206748,8.0925260332,-4.4075792292,3.0329026454999997,10
83748,195222,206757,8.1140614366,-4.3573299546,3.0424739359,11
83943,195268,206778,8.0470624038,-4.3884366484,2.9838497821999996,12
84155,195327,206825,8.1439717191,-4.3812581806,3.0233313551,13
84379,195376,206858,8.183453292,-4.3345981399,2.9276184511,14
84551,195483,206886,7.998009540499999,-4.4243289874,2.9503502657999996,15
84827,195521,206959,8.1451681304,-4.4542392699,2.9647072014,16
85018,195600,206983,8.1918281711,-4.3334017286,2.9934210726,17
85191,195644,207026,8.2109707519,-4.5092741897,3.0699913958000002,18
84965,195650,207034,8.049455226400001,-4.3298124947,2.9072794589999997,19
84347,195453,206970,8.1619178886,-4.4195433422,2.9611179675,20
83799,195213,206855,8.128418372199999,-4.3381873738,3.0903303879,21
83476,195057,206739,8.061419339399999,-4.5068813671,2.9694928465999997,22
83352,194950,206743,8.1870425259,-4.4434715682,3.0029923629999997,23
83384,194901,206691,8.1882389372,-4.4841495524,2.9264220398,24
83545,194905,206682,8.0135628874,-4.3920258823,3.0376882907,25
83755,194947,206739,8.1535430095,-4.3609191885,3.0221349438,26
83937,194979,206761,8.0805619202,-4.3286160834,2.9575287336000002,27
84029,195055,206768,8.1212399044,-4.4398823343,2.9766713144,28
84213,195035,206801,8.1212399044,-4.4075792292,2.9862426048,29
84350,195070,206834,8.0650085733,-4.3369909625,2.9647072014,30
84487,195122,206852,8.1200434931,-4.414757697,2.919243572,31
84661,195148,206876,8.1104722027,-4.3645084224,3.0101708308,32
84856,195222,206920,8.1044901462,-4.353740720699999,3.0221349438,33
85051,195277,206945,8.0470624038,-4.5140598349,3.0352954681,34
85241,195328,207000,8.1583286547,-4.295116567,2.979064137,35
85454,195409,207049,8.1918281711,-4.2855452766,2.9754749031,36
85663,195472,207071,8.249255913499999,-4.3286160834,2.9395825641,37
85876,195570,207101,8.0542408716,-4.3752761241,2.9802605483,38
86039,195580,207175,8.0685978072,-4.415954108299999,3.0101708308,39
86051,195642,207232,8.0733834524,-4.4207397534999995,2.9288148624,40
85635,195519,207158,8.027919823,-4.4721854394000005,2.8809584104000003,41
85086,195348,207104,8.102097323599999,-4.4697926167999995,2.9874390161,42
84866,195195,207023,8.1499537756,-4.2640098732,3.0556344602,43
84711,195076,206937,8.0183485326,-4.4219361648,2.9742784918,44
84722,195032,206932,8.0422767586,-4.4602213264,2.9814569596,45
84819,194994,206898,8.1631142999,-4.4327038665,2.8953153460000003,46
84986,195085,206971,8.1535430095,-4.4135612857,2.9694928465999997,47
85135,195117,206942,8.1906317598,-4.4051864066,2.9216363945999997,48
85227,195150,206999,8.0853475654,-4.342973019,2.9647072014,49
85303,195181,207038,8.170292767700001,-4.415954108299999,2.9527430884,50
85399,195179,207051,8.0805619202,-4.2460637037,3.0317062341999996,51
85474,195236,207012,8.1499537756,-4.3920258823,2.9264220398,52
85631,195243,207021,8.0566336942,-4.4015971727,3.0843483314,53
85774,195276,207080,8.1272219609,-4.3166519704,3.1238299043,54
85911,195333,207083,8.0374911134,-4.402793583999999,2.9778677257000004,55
86098,195404,207129,8.0973116784,-4.4721854394000005,3.0448667585,56
86274,195420,207191,8.2025958728,-4.4219361648,3.0783662749,57
86443,195513,207220,8.0650085733,-4.3046878574,2.9862426048,58
86578,195604,207272,8.1403824852,-4.295116567,3.0364918793999998,59
86386,195528,207253,8.0087772422,-4.42672181,2.8737799425999997,60
85889,195392,207201,8.0470624038,-4.4219361648,2.9635107901000004,61
85378,195174,207111,8.1188470818,-4.3082770913,3.1046873235,62
85020,195003,207008,8.2013994615,-4.4781674959,2.9228328059,63
84827,194918,206943,8.074579863699999,-4.3501514868,3.0245277664,64
84771,194885,206917,8.0207413552,-4.4542392699,2.9599215562,65
84864,194856,206912,8.1619178886,-4.4004007614,2.9647072014,66
84972,194872,206944,8.123632727,-4.5355952383,3.014956476,67
85052,194924,206950,8.0961152671,-4.5236311253,3.1118657913,68
85084,194924,206929,8.075776275,-4.3465622529,3.0137600647,69
85119,194918,206972,8.1870425259,-4.4638105603,2.9551359109999997,70
85194,194968,206972,8.111668614,-4.4697926167999995,3.0005995404,71
85283,194945,206963,8.2097743406,-4.3896330597,3.0376882907,72
85403,194991,207025,8.0362947021,-4.3704904789,3.0005995404,73
85532,195041,207049,8.1571322434,-4.5020957219,2.9503502657999996,74
85671,195117,207034,8.1224363157,-4.3764725354000005,3.0053851856000002,75
85839,195184,207066,8.1499537756,-4.4243289874,3.0484559924,76
85969,195252,207109,8.1104722027,-4.3944187049,2.8761727652,77
86069,195323,207152,8.1499537756,-4.3489550755,3.086741154,78
85821,195223,207183,8.128418372199999,-4.390829471,3.0077780082,79
85160,195046,207135,8.0925260332,-4.4997028993,2.9001009912,80
84463,194804,206935,8.087740388,-4.462614149,2.9826533709,81
83980,194625,206869,7.9968131291999995,-4.390829471,3.0544380489000003,82
83686,194474,206798,8.236095389199999,-4.4889351976,2.9300112737000004,83
83603,194416,206725,8.039883936,-4.382454591899999,3.0005995404,84
83630,194412,206745,8.155935832099999,-4.3334017286,2.9575287336000002,85
83777,194437,206748,8.0733834524,-4.3597227772,3.0364918793999998,86
83867,194483,206779,8.0542408716,-4.3262232608,2.9647072014,87
83965,194482,206801,8.1260255496,-4.4255253987,3.0005995404,88
84032,194518,206798,8.0386875247,-4.3944187049,3.0065815969000003,89
84106,194574,206810,8.116454259200001,-4.3250268494999995,2.9479574432,90
84205,194578,206782,8.1966138163,-4.3884366484,2.9359933301999996,91
84345,194654,206842,8.1188470818,-4.4291146326,2.9874390161,92
84491,194683,206879,8.1678999451,-4.4721854394000005,2.8785655878,93
84655,194719,206944,8.1655071225,-4.4039899953,3.0269205889999995,94
84847,194839,207000,8.1224363157,-4.3860438258,3.0269205889999995,95
85027,194900,207012,8.124829138299999,-4.438685923,3.0687949845,96
85209,194957,207078,8.0374911134,-4.3884366484,2.9575287336000002,97
85203,194974,207122,8.062615750700001,-4.5320060043999995,3.062812928,98
84669,194883,207099,8.099704501,-4.4458643908,2.9144579268,99
83886,194670,206957,8.051848049,-4.3956151162,2.7912275628999996,100
83264,194447,206811,8.0374911134,-4.2568314054,3.0077780082,101
82901,194219,206751,8.115257847899999,-4.390829471,3.014956476,102
82703,194080,206694,8.160721477300001,-4.4111684631,3.0448667585,103
82709,194070,206634,8.0291162343,-4.3645084224,2.9718856692,104
82867,194108,206693,8.1583286547,-4.378865358,3.0173492985999997,105
83060,194138,206663,8.0662049846,-4.4195433422,2.9407789753999998,106
83203,194220,206737,8.0255270004,-4.3836510032,3.0245277664,107
83340,194246,206723,8.026723411699999,-4.3010986235,3.038884702,108
83383,194296,206740,8.0063844196,-4.3932222936,2.8689942974,109
83502,194332,206823,7.9776705484,-4.4973100767,3.0544380489000003,110
83626,194357,206807,8.1080793801,-4.4841495524,3.0580272828,111
83780,194449,206832,8.0183485326,-4.258027816699999,2.9754749031,112
83988,194504,206877,8.2061851067,-4.4757746733,3.0364918793999998,113
84195,194584,206943,7.8975109913,-4.4339002778,3.0305098229,114
84400,194628,206974,8.017152121299999,-4.30708068,2.9862426048,115
84616,194710,207064,8.1104722027,-4.4255253987,3.0053851856000002,116
84808,194791,207124,8.2372918005,-4.3178483817,2.9826533709,117
84920,194858,207173,8.2420774457,-4.3980079388,3.0508488149999997,118
84520,194777,207139,8.0207413552,-4.3860438258,2.9072794589999997,119
83795,194578,207025,8.1487573643,-4.5164526575,3.0460631697999996,120
83191,194292,206925,8.0602229281,-4.3226340269,2.9886354273999998,121
82883,194134,206861,8.1092757914,-4.3956151162,3.0508488149999997,122
82757,194062,206802,8.1200434931,-4.3154555591,3.0376882907,123
82812,194044,206752,8.1332040174,-4.4578285038,2.9958138952,124
83007,194035,206771,8.0303126456,-4.4673997942,3.0891339766000003,125
83244,194094,206788,8.1774712355,-4.414757697,2.9718856692,126
83302,194163,206851,8.1044901462,-4.382454591899999,2.9240292172,127
83498,194162,206837,8.13559684,-4.4111684631,3.0412775246,128
83634,194207,206868,8.0805619202,-4.3106699139,3.0687949845,129
83782,194234,206893,8.044669581199999,-4.3645084224,2.9108686929000003,130
83936,194303,206915,8.1344004287,-4.4721854394000005,3.0927232105,131
84105,194387,206961,8.061419339399999,-4.3692940676,2.9527430884,132
84306,194432,207028,8.111668614,-4.3956151162,3.0747770410000004,133
84536,194516,207065,8.1056865575,-4.42672181,3.0029923629999997,134
84756,194556,207070,8.115257847899999,-4.3836510032,3.0412775246,135
84973,194644,207152,8.1678999451,-4.4434715682,3.0257241777000004,136
85193,194758,207224,8.102097323599999,-4.450650036,2.9958138952,137
85413,194810,207264,7.9764741371,-4.4004007614,3.1250263156,138
85468,194854,207307,8.155935832099999,-4.353740720699999,3.0065815969000003,139
85116,194757,207248,8.027919823,-4.4303110439,2.9682964353,140
84667,194544,207158,8.1918281711,-4.387240237099999,3.0065815969000003,141
84370,194295,207137,8.039883936,-4.3645084224,3.0963124444,142
84270,194201,206999,8.1846497033,-4.3740797127999995,3.0484559924,143
84284,194217,206996,8.044669581199999,-4.3728833015,3.0281170003,144
84393,194177,207019,8.0961152671,-4.342973019,2.9766713144,145
84598,194201,206999,8.102097323599999,-4.492524431500001,3.0759734523,146
84767,194248,207012,8.0650085733,-4.3764725354000005,2.9479574432,147
84911,194330,207038,8.1320076061,-4.3226340269,3.0771698636,148
85023,194318,207023,8.2301133327,-4.4410787456,3.0364918793999998,149
85196,194350,207083,8.0662049846,-4.5188454800999995,2.9084758702999998,150
85294,194391,207080,8.0769726863,-4.3860438258,3.0807590974999997,151
85465,194455,207127,8.0793655089,-4.2819560427,3.0340990568,152
85626,194492,207164,8.087740388,-4.2687955184,3.0376882907,153
85865,194552,207192,8.074579863699999,-4.4434715682,3.0616165167,154
86039,194615,207238,8.049455226400001,-4.3716868902,3.0053851856000002,155
86217,194696,207269,8.2229348649,-4.42672181,3.0819555088,156
86413,194749,207337,8.1978102276,-4.3884366484,3.038884702,157
86521,194799,207363,8.0458659925,-4.3250268494999995,3.1310083721,158
86393,194759,207356,7.9992059518000005,-4.390829471,2.9850461935,159
85998,194517,207244,8.1260255496,-4.4937208428,3.0604201053999995,160
85746,194265,207133,8.061419339399999,-4.4051864066,3.0173492985999997,161
85594,194105,207082,8.129614783500001,-4.4075792292,3.0771698636,162
85561,194070,207043,8.1726855903,-4.4554356812,3.0544380489000003,163
85600,194020,206976,8.0781690976,-4.4087756405,3.0604201053999995,164
85729,194036,207009,8.0925260332,-4.510470601,3.0173492985999997,165
85893,194063,207022,8.0829547428,-4.3178483817,2.9934210726,166
86017,194160,207051,7.9764741371,-4.3345981399,2.9515466771,167
86126,194167,207030,8.1188470818,-4.42672181,3.0101708308,168
86217,194224,207071,8.1463645417,-4.3621155998,2.9778677257000004,169
86353,194277,207093,8.1044901462,-4.2281175342,3.0317062341999996,170
86512,194309,207109,8.0255270004,-4.5008993106,3.0532416376,171
86637,194383,207142,8.2157563971,-4.3453658416,2.9934210726,172
86816,194429,207134,8.137989662599999,-4.4291146326,3.014956476,173
86977,194500,207221,8.1391860739,-4.3680976563,3.0544380489000003,174
87181,194584,207278,7.9585279676,-4.3154555591,2.9407789753999998,175
87335,194650,207349,8.1308111948,-4.3513478981,3.0293134116,176
87489,194716,207332,8.1188470818,-4.378865358,3.0532416376,177
87536,194759,207379,7.9417782094,-4.4279182213,2.9946174839,178
87286,194633,207313,8.0099736535,-4.2915273330999995,3.0113672421,179
86953,194397,207194,8.267202082999999,-4.4111684631,3.0233313551,180
86624,194190,207107,8.0015987744,-4.415954108299999,3.0759734523,181
86559,194019,207036,8.0961152671,-4.527220359199999,3.0101708308,182
86509,193938,206952,8.049455226400001,-4.4398823343,2.9766713144,183
86545,193913,206905,8.1224363157,-4.4171505196,3.0161528873,184
86630,193969,206948,8.1810604694,-4.4518464473,3.0640093393,185
86765,194010,206964,8.0075808309,-4.3716868902,2.9431717980000003,186
86851,194018,207006,8.0542408716,-4.4590249151000005,3.0711878071,187
86934,194047,206972,8.182256880699999,-4.354937132,2.9168507494,188
87025,194087,206986,8.1583286547,-4.4362931003999995,3.1525437755,189
87113,194176,207012,8.1463645417,-4.4374895117,3.0029923629999997,190
87221,194213,207026,8.1774712355,-4.4195433422,3.0125636533999995,191
87354,194254,207120,8.0853475654,-4.4793639072,3.0412775246,192
87493,194337,207132,8.0482588151,-4.4841495524,3.0532416376,193
87630,194416,207206,8.1415788965,-4.342973019,2.9527430884,194
87790,194514,207236,8.051848049,-4.2484565263,2.8773691765,195
87915,194552,207271,7.992027484,-4.3956151162,2.9934210726,196
88110,194652,207319,8.1774712355,-4.3597227772,2.9647072014,197
88210,194717,207356,8.1583286547,-4.4673997942,2.9814569596,198
88121,194747,207391,8.0542408716,-4.4195433422,3.0424739359,199
87778,194540,207280,8.0685978072,-4.3369909625,2.9527430884,200
87405,194263,207132,8.0674013959,-4.390829471,3.0424739359,201
87119,194079,207054,8.0063844196,-4.3334017286,3.0245277664,202
86941,193953,206991,8.1631142999,-4.3154555591,2.9479574432,203
86842,193902,206919,7.942974620699999,-4.450650036,2.9694928465999997,204
86861,193904,206911,8.1188470818,-4.347758664200001,3.0735806297,205
86927,193922,206939,8.1104722027,-4.4051864066,3.0975088557,206
86997,193996,206974,8.1391860739,-4.4075792292,3.0807590974999997,207
87028,194035,206979,7.998009540499999,-4.331008906,3.0329026454999997,208
87074,194059,207004,8.0554372829,-4.3250268494999995,2.9336005076,209
87128,194093,206985,8.0733834524,-4.319044793,3.0029923629999997,210
87196,194121,207037,8.0350982908,-4.4339002778,3.0125636533999995,211
87285,194177,207037,8.0590265168,-4.4494536247,2.9826533709,212
87378,194208,207080,8.1188470818,-4.4243289874,3.0053851856000002,213
87532,194311,207108,8.0542408716,-4.5332024157,3.0424739359,214
87619,194352,207132,8.0183485326,-4.4207397534999995,3.0735806297,215
87758,194467,207216,8.1427753078,-4.4315074552,3.0400811133000003,216
87878,194555,207289,8.0697942185,-4.3130627365,2.9575287336000002,217
88004,194643,207294,8.0207413552,-4.4602213264,2.9982067177999996,218
88137,194698,207421,8.123632727,-4.3058842687,3.0329026454999997,219
88176,194780,207423,8.1439717191,-4.4087756405,2.9204399833,220
87875,194745,207366,8.159525066,-4.4339002778,2.919243572,221
87393,194478,207300,8.0973116784,-4.4279182213,3.0448667585,222
86929,194160,207169,8.0650085733,-4.3597227772,3.0317062341999996,223
86617,194044,207084,8.0805619202,-4.4518464473,2.9383861528,224
86429,193962,206993,8.1942209937,-4.3848474145,3.0029923629999997,225
86349,193923,206951,8.1882389372,-4.498506487999999,2.9347969189,226
86399,193925,206981,8.0542408716,-4.320241204299999,3.0424739359,227
86440,194023,206964,8.0829547428,-4.4362931003999995,3.0125636533999995,228
86457,194045,206985,8.0063844196,-4.4662033829,2.9647072014,229
86440,194024,206998,8.1870425259,-4.2987058009,3.0604201053999995,230
86432,194089,207023,7.969295669299999,-4.4099720518000005,2.9359933301999996,231
86430,194131,206992,8.099704501,-4.5152562462,3.0592236941,232
86459,194138,207044,8.1344004287,-4.4697926167999995,2.9886354273999998,233
86547,194176,207061,8.0781690976,-4.4315074552,3.0293134116,234
86632,194239,207079,8.1631142999,-4.4697926167999995,3.0352954681,235
86743,194303,207137,8.039883936,-4.4183469309,3.0436703472,236
86862,194384,207195,8.1942209937,-4.3764725354000005,3.0927232105,237
86947,194443,207261,8.0805619202,-4.4243289874,3.0604201053999995,238
87104,194565,207247,8.1511501869,-4.4398823343,3.0436703472,239
87162,194561,207312,8.1332040174,-4.5080777784,3.0364918793999998,240
86848,194571,207325,8.062615750700001,-4.474578262,2.9694928465999997,241
86420,194372,207225,8.0063844196,-4.4075792292,2.9407789753999998,242
85764,194101,207075,8.173882001600001,-4.2843488653,3.0317062341999996,243
85342,193930,206971,8.2217384536,-4.4099720518000005,3.0556344602,244
85097,193812,206927,8.0685978072,-4.4063828179,2.9766713144,245
84961,193779,206866,8.2061851067,-4.3752761241,3.1094729686999996,246
84998,193764,206855,8.13559684,-4.4123648744,3.0029923629999997,247
85062,193802,206910,8.0147592987,-4.5200418914,2.9934210726,248
85089,193849,206902,8.123632727,-4.3932222936,3.0951160330999996,249
85096,193856,206918,8.1320076061,-4.3728833015,2.9599215562,250
85100,193878,206924,7.9740813145,-4.3812581806,2.8989045799,251
85103,193922,206960,8.044669581199999,-4.4111684631,3.0544380489000003,252
85145,193895,206965,8.063812162,-4.465006971599999,2.9826533709,253
85229,193956,206976,8.1128650253,-4.4279182213,3.0233313551,254
85360,194006,207002,8.0374911134,-4.4207397534999995,2.8989045799,255
85455,194089,207051,8.005188008300001,-4.3884366484,2.9718856692,256
85596,194135,207083,8.039883936,-4.3357945512,3.0077780082,257
85742,194245,207156,8.039883936,-4.4470608021,3.0173492985999997,258
85885,194270,207159,8.115257847899999,-4.4339002778,3.0723842184,259
85831,194344,207235,7.928617685100001,-4.4051864066,3.0125636533999995,260
85310,194182,207145,8.005188008300001,-4.3621155998,2.9383861528,261
84580,193925,207032,8.182256880699999,-4.4195433422,3.0317062341999996,262
83984,193612,206896,8.1547394208,-4.4075792292,2.9958138952,263
83632,193480,206796,8.1260255496,-4.3932222936,3.0723842184,264
83437,193374,206736,8.1128650253,-4.3776689467,2.9970103065,265
83429,193307,206741,8.0291162343,-4.2795632201,2.9826533709,266
83556,193352,206734,8.1463645417,-4.4183469309,3.0532416376,267
83662,193400,206785,7.9262248625,-4.4135612857,3.0269205889999995,268
83757,193462,206798,8.124829138299999,-4.3633120111,3.1022945009000003,269
83815,193469,206836,8.2660056717,-4.4398823343,3.0675985732,270
83906,193505,206799,8.2037922841,-4.5008993106,3.0221349438,271
83989,193580,206881,7.984849016199999,-4.3716868902,3.0005995404,272
84110,193620,206914,8.0327054682,-4.4518464473,2.9766713144,273
84253,193683,206968,8.182256880699999,-4.4075792292,3.0340990568,274
84424,193715,206994,8.1320076061,-4.4087756405,2.9647072014,275
84610,193847,207044,7.9716884919,-4.4291146326,3.0496524037,276
84800,193895,207109,8.0303126456,-4.4362931003999995,3.0005995404,277
84970,194011,207133,8.1391860739,-4.402793583999999,2.979064137,278
85165,194101,207189,8.123632727,-4.3585263658999995,2.9455646206,279
85305,194175,207281,8.0793655089,-4.5595234643,3.1046873235,280
85031,194129,207259,8.1080793801,-4.3417766077,2.9575287336000002,281
84334,193888,207186,8.1487573643,-4.4195433422,2.8785655878,282
83696,193551,206983,8.1403824852,-4.4422751569,3.0508488149999997,283
83270,193361,206873,8.1308111948,-4.4315074552,2.9886354273999998,284
83081,193240,206858,8.0315090569,-4.4673997942,2.9575287336000002,285
82962,193129,206781,8.044669581199999,-4.4841495524,3.0077780082,286
83102,193128,206763,7.9752777258,-4.2508493489,3.0376882907,287
83282,193232,206764,8.063812162,-4.5008993106,3.0580272828,288
83464,193282,206823,8.057830105499999,-4.4051864066,3.014956476,289
83553,193292,206854,8.1367932513,-4.3812581806,2.9742784918,290
83686,193373,206931,8.0219377665,-4.4315074552,3.0759734523,291
83780,193397,206966,8.044669581199999,-4.4315074552,2.9742784918,292
83921,193462,206924,8.0853475654,-4.3154555591,3.0508488149999997,293
84070,193539,206984,8.0207413552,-4.4578285038,3.0879375653000003,294
84235,193570,207054,8.0650085733,-4.4004007614,3.0125636533999995,295
84456,193676,207039,8.1128650253,-4.4303110439,2.9443682093000003,296
84645,193765,207116,8.0901332106,-4.4362931003999995,3.0053851856000002,297
84855,193853,207161,8.0291162343,-4.3728833015,2.9862426048,298
85061,193932,207223,8.087740388,-4.4518464473,3.0747770410000004,299
85264,194057,207267,8.01595571,-4.415954108299999,3.1022945009000003,300
85451,194103,207313,8.1367932513,-4.347758664200001,3.0340990568,301
85486,194167,207379,8.1200434931,-4.414757697,2.9347969189,302
85061,194033,207313,7.986045427500001,-4.4434715682,2.8821548217,303
84453,193765,207195,8.124829138299999,-4.3417766077,3.0065815969000003,304
84003,193519,207041,8.1056865575,-4.2939201557,3.0675985732,305
83760,193315,206920,8.0506516377,-4.4530428586,2.9982067177999996,306
83580,193226,206899,8.1272219609,-4.4889351976,2.883351233,307
83746,193210,206863,8.074579863699999,-4.353740720699999,2.9168507494,308
83861,193245,206922,8.1032937349,-4.4673997942,3.0520452262999997,309
84038,193314,206880,7.9752777258,-4.3740797127999995,3.0017959517,310
84184,193374,206978,8.116454259200001,-4.3980079388,2.8797619991,311
84337,193407,206975,8.0733834524,-4.3393837851,2.9898318387,312
84400,193445,207029,7.942974620699999,-4.3286160834,3.0412775246,313
84526,193501,207059,8.084151154099999,-4.3274196721000004,3.1130622026,314
84662,193560,207058,8.0015987744,-4.4315074552,3.0436703472,315
84812,193614,207083,8.0470624038,-4.4171505196,2.9647072014,316
84998,193708,207114,8.003991596999999,-4.3513478981,3.0376882907,317
85186,193772,207176,8.049455226400001,-4.4841495524,3.0616165167,318
85373,193876,207230,8.099704501,-4.3585263658999995,2.979064137,319
85568,193927,207306,8.1750784129,-4.3728833015,3.0580272828,320
85728,194067,207305,8.2133635745,-4.3417766077,2.967100024,321
85937,194094,207402,8.017152121299999,-4.42672181,3.0329026454999997,322
86101,194221,207421,8.061419339399999,-4.2604206393,3.1334011947,323
86129,194262,207495,8.084151154099999,-4.4063828179,3.0843483314,324
85763,194156,207410,7.9190463947000005,-4.4219361648,3.0077780082,325
85288,193883,207254,8.0769726863,-4.402793583999999,3.0687949845,326
84917,193641,207163,8.063812162,-4.4458643908,2.9611179675,327
84735,193490,207102,8.1678999451,-4.3716868902,3.0125636533999995,328
84677,193487,207082,8.111668614,-4.5296131818,2.9491538545,329
84739,193475,207068,8.1200434931,-4.354937132,2.9599215562,330
84873,193495,207093,8.0350982908,-4.2532421715,2.9383861528,331
85003,193571,207119,8.01595571,-4.4171505196,3.0221349438,332
85082,193635,207128,8.049455226400001,-4.4075792292,3.0317062341999996,333
85134,193641,207101,8.0542408716,-4.4004007614,3.0269205889999995,334
85213,193679,207158,8.0817583315,-4.4219361648,2.9862426048,335
85286,193691,207172,8.1320076061,-4.4662033829,2.9958138952,336
85429,193725,207153,8.039883936,-4.3334017286,3.0556344602,337
85475,193784,207214,8.1068829688,-4.5152562462,3.0101708308,338
85684,193869,207179,8.1535430095,-4.3501514868,2.9886354273999998,339
85852,193975,207325,8.2037922841,-4.3154555591,3.0532416376,340
86006,194034,207339,8.0374911134,-4.4195433422,3.0209385325,341
86154,194105,207326,8.1224363157,-4.4889351976,3.0221349438,342
86373,194173,207385,8.0015987744,-4.390829471,2.9575287336000002,343
86419,194257,207493,8.0590265168,-4.4889351976,3.0795626862,344
86233,194266,207451,8.0255270004,-4.331008906,2.8881368781999996,345
85673,194017,207350,8.0925260332,-4.4961136654,2.9838497821999996,346
85112,193719,207189,8.129614783500001,-4.3692940676,3.0556344602,347
84732,193512,207101,8.1128650253,-4.4123648744,3.0939196218,348
84512,193385,207001,7.9716884919,-4.3621155998,3.0412775246,349
84407,193352,206995,8.0015987744,-4.4243289874,3.0496524037,350
84508,193356,206979,8.1499537756,-4.4793639072,2.9742784918,351
84536,193391,206965,8.0303126456,-4.3369909625,2.9120651042,352
84604,193408,207025,8.1080793801,-4.527220359199999,2.9982067177999996,353
84628,193439,207058,8.1104722027,-4.3405801963999995,3.0460631697999996,354
84659,193412,207039,8.0590265168,-4.438685923,2.9730820805000002,355
84726,193521,207052,8.074579863699999,-4.3369909625,3.0125636533999995,356
84797,193524,207063,8.1009009123,-4.4482572134,3.0340990568,357
84892,193627,207109,8.1655071225,-4.4482572134,2.9862426048,358
85036,193692,207128,8.2241312762,-4.3274196721000004,3.0041887742999998,359
85188,193733,207199,8.1415788965,-4.4410787456,3.0269205889999995,360
85347,193791,207198,8.0805619202,-4.4135612857,3.0221349438,361
85490,193901,207260,7.9489566772,-4.4315074552,3.0460631697999996,362
85652,193954,207316,8.1750784129,-4.3896330597,3.038884702,363
85747,194012,207336,8.0973116784,-4.4279182213,3.0687949845,364
85366,193967,207318,8.075776275,-4.498506487999999,2.9623143788,365
84634,193680,207177,7.980063371,-4.3489550755,2.9874390161,366
83999,193366,207039,8.0554372829,-4.4362931003999995,3.0664021618999997,367
83527,193160,206910,8.1774712355,-4.3980079388,3.0077780082,368
83287,193023,206836,8.0949188558,-4.2891345105,2.9587251449000003,369
83164,192953,206804,8.1655071225,-4.4171505196,3.0364918793999998,370
83210,192958,206821,8.0781690976,-4.3812581806,3.0807590974999997,371
83358,192991,206819,7.9669028467,-4.4123648744,3.0197421212,372
83479,193066,206885,8.0219377665,-4.3393837851,3.0556344602,373
83532,193118,206866,8.01595571,-4.4769710846,3.0436703472,374
83643,193166,206923,8.2109707519,-4.3956151162,3.0065815969000003,375
83733,193208,206951,8.0674013959,-4.3513478981,3.0484559924,376
83851,193256,206983,8.2289169214,-4.3896330597,3.1022945009000003,377
83993,193312,206985,8.128418372199999,-4.3944187049,2.9706892578999997,378
84151,193363,207104,8.123632727,-4.4937208428,2.9838497821999996,379
84343,193489,207087,7.9992059518000005,-4.3752761241,2.9718856692,380
84525,193575,207204,8.0590265168,-4.4219361648,3.0364918793999998,381
84722,193661,207211,8.2037922841,-4.42672181,3.0484559924,382
84897,193748,207256,8.0817583315,-4.4410787456,3.0340990568,383
85100,193842,207369,8.1104722027,-4.4697926167999995,3.0508488149999997,384
85146,193937,207366,8.0470624038,-4.4291146326,3.0843483314,385
84713,193791,207337,8.0913296219,-4.5367916496,2.9742784918,386
83932,193528,207201,8.0889367993,-4.3920258823,3.0364918793999998,387
83288,193228,206980,8.1080793801,-4.3609191885,2.9694928465999997,388
82895,192998,206915,8.0315090569,-4.5008993106,3.0951160330999996,389
82711,192914,206828,8.074579863699999,-4.5487557626,3.0879375653000003,390
82702,192847,206774,8.0255270004,-4.382454591899999,2.9934210726,391
82824,192864,206793,8.070990629799999,-4.4590249151000005,3.1429724850999996,392
83008,192926,206865,8.1487573643,-4.3166519704,3.0221349438,393
83139,192993,206919,8.049455226400001,-4.4183469309,3.0891339766000003,394
83310,193049,206907,7.992027484,-4.2675991071,3.0317062341999996,395
83390,193108,206951,8.1092757914,-4.3992043501,3.0269205889999995,396
83507,193147,207010,8.1056865575,-4.3345981399,3.0221349438,397
83622,193184,206993,8.0865439767,-4.4183469309,3.0915267992,398
83809,193239,207074,8.1391860739,-4.474578262,2.9850461935,399
84005,193360,207108,8.1332040174,-4.415954108299999,2.9874390161,400
84182,193409,207158,8.0123664761,-4.4446679795,3.0436703472,401
84412,193500,207243,8.0183485326,-4.3752761241,2.9982067177999996,402
84613,193634,207276,8.1667035338,-4.4769710846,3.0508488149999997,403
84817,193703,207356,8.1320076061,-4.3094735026,3.0807590974999997,404
85032,193810,207372,8.123632727,-4.4614177377,3.0209385325,405
85233,193881,207419,8.102097323599999,-4.450650036,3.0831519201,406
85313,194020,207444,7.9992059518000005,-4.3776689467,3.0005995404,407
84943,193938,207460,8.0027951857,-4.4243289874,2.9599215562,408
84239,193633,207281,8.1547394208,-4.3034914461,2.9814569596,409
83653,193389,207176,8.062615750700001,-4.3633120111,3.1034909122000003,410
83347,193187,207061,8.057830105499999,-4.3597227772,3.0364918793999998,411
83178,193080,207015,7.9872418388,-4.5044885445,3.0412775246,412
83254,193097,206986,8.075776275,-4.465006971599999,3.1453653077,413
83398,193093,206997,7.8927253461,-4.3298124947,3.0604201053999995,414
83565,193169,207026,8.0135628874,-4.4279182213,3.0664021618999997,415
83694,193223,207055,8.0901332106,-4.4721854394000005,3.0759734523,416
83789,193278,207087,8.0805619202,-4.4339002778,3.014956476,417
83864,193297,207111,8.1080793801,-4.2915273330999995,3.0101708308,418
83984,193369,207127,8.0985080897,-4.5212383027000005,3.0484559924,419
84095,193409,207163,8.0243305891,-4.3657048337,3.0783662749,420
84248,193444,207170,8.1882389372,-4.4482572134,3.0340990568,421
84415,193525,207233,8.0590265168,-4.3214376156,3.1022945009000003,422
84599,193570,207279,8.1511501869,-4.3884366484,3.0412775246,423
84764,193663,207341,7.9932238953,-4.4291146326,2.9587251449000003,424
84964,193738,207337,8.0374911134,-4.4015971727,3.1286155494999996,425
85147,193841,207460,8.1631142999,-4.4458643908,3.0245277664,426
85343,193959,207481,8.0566336942,-4.378865358,3.0807590974999997,427
85450,194046,207555,8.0949188558,-4.5415772948,3.0915267992,428
85176,193966,207490,8.0829547428,-4.4171505196,3.014956476,429
84527,193705,207397,8.1535430095,-4.3812581806,3.0520452262999997,430
83934,193385,207265,8.0805619202,-4.4219361648,3.098705267,431
83612,193229,207124,7.9824561936,-4.4841495524,2.9443682093000003,432
83457,193137,207068,8.1009009123,-4.3573299546,3.1692935337,433
83440,193107,207021,7.9872418388,-4.4315074552,3.0065815969000003,434
83574,193130,207036,8.0685978072,-4.3932222936,3.0819555088,435
83736,193198,207053,8.039883936,-4.378865358,2.9647072014,436
83899,193212,207093,8.1188470818,-4.4602213264,3.0173492985999997,437
83885,193254,207125,8.0985080897,-4.4889351976,3.0675985732,438
84054,193296,207160,8.116454259200001,-4.4051864066,2.9623143788,439
84149,193310,207189,8.0865439767,-4.4135612857,3.0687949845,440
84211,193351,207210,8.0949188558,-4.3920258823,3.0652057506,441
84361,193414,207224,8.0685978072,-4.4362931003999995,3.0317062341999996,442
84531,193461,207240,8.0973116784,-4.4602213264,3.0125636533999995,443
84681,193542,207298,8.1080793801,-4.3118663252,3.0999016782999997,444
84847,193610,207333,8.061419339399999,-4.3645084224,3.014956476,445
85028,193700,207375,8.160721477300001,-4.4434715682,3.0496524037,446
85198,193787,207435,8.0781690976,-4.3405801963999995,3.0173492985999997,447
85339,193865,207503,8.2229348649,-4.5248275366,3.1010980895999998,448
85105,193840,207525,8.0985080897,-4.4877387863000004,3.0245277664,449
84449,193612,207359,7.992027484,-4.3633120111,2.9647072014,450
83768,193257,207144,8.0925260332,-4.465006971599999,3.0173492985999997,451
83305,193048,207004,8.1918281711,-4.5595234643,3.1262227269,452
83044,192936,207003,8.027919823,-4.4183469309,2.9431717980000003,453
82906,192861,206923,8.01595571,-4.5248275366,3.038884702,454
83038,192841,206909,8.1415788965,-4.5188454800999995,2.9934210726,455
83220,192883,206966,8.0937224445,-4.3345981399,3.0711878071,456
83368,192918,207018,8.0183485326,-4.4769710846,3.1357940173,457
83478,193009,207010,8.0769726863,-4.3884366484,3.0005995404,458
83564,193002,207038,8.039883936,-4.465006971599999,3.0532416376,459
83663,193068,207082,8.147560953,-4.3956151162,3.0544380489000003,460
83778,193117,207116,8.1009009123,-4.4542392699,3.0771698636,461
83926,193190,207115,8.102097323599999,-4.387240237099999,3.0640093393,462
84102,193269,207168,7.9836526049,-4.3812581806,3.1154550251999997,463
84279,193316,207224,8.0685978072,-4.4327038665,3.0592236941,464
84459,193407,207269,8.0063844196,-4.3932222936,3.086741154,465
84641,193465,207359,7.9884382501,-4.387240237099999,3.0053851856000002,466
84840,193639,207408,8.0422767586,-4.4841495524,3.0185457098999997,467
85039,193692,207435,8.051848049,-4.3716868902,3.0364918793999998,468
85104,193757,207477,8.074579863699999,-4.462614149,3.098705267,469
84641,193639,207424,7.9130643382,-4.3692940676,3.0053851856000002,470
83898,193350,207274,8.070990629799999,-4.4877387863000004,3.0496524037,471
83244,193017,207107,8.087740388,-4.450650036,3.1429724850999996,472
82853,192805,207012,8.0817583315,-4.4697926167999995,2.9958138952,473
82640,192699,206965,8.129614783500001,-4.4207397534999995,2.9958138952,474
82593,192651,206858,7.8807612331,-4.4015971727,3.0209385325,475
82724,192683,206876,8.074579863699999,-4.4123648744,3.0269205889999995,476
82939,192728,206933,8.084151154099999,-4.3034914461,3.0831519201,477
83093,192798,206977,7.9788669596999995,-4.3298124947,3.1393832512,478
83213,192814,206970,7.9788669596999995,-4.382454591899999,3.0771698636,479
83311,192873,207022,8.1212399044,-4.5595234643,2.99102825,480
83438,192956,207046,7.9824561936,-4.387240237099999,2.9838497821999996,481
83559,193029,207041,8.1009009123,-4.4291146326,2.967100024,482
83706,193059,207136,8.1367932513,-4.4362931003999995,3.0484559924,483
83906,193118,207153,8.0135628874,-4.3860438258,3.0101708308,484
84085,193211,207203,7.9908310727,-4.465006971599999,3.0484559924,485
84285,193245,207270,8.0685978072,-4.450650036,3.0340990568,486
84498,193368,207331,8.2695949056,-4.4004007614,3.0927232105,487
84722,193484,207403,8.0231341778,-4.4769710846,2.9838497821999996,488
84907,193619,207476,8.0793655089,-4.4638105603,3.0436703472,489
85112,193694,207543,8.0542408716,-4.3920258823,3.1525437755,490
85182,193795,207503,7.9992059518000005,-4.582255279,3.1334011947,491
84750,193683,207489,7.969295669299999,-4.3716868902,2.8534409504999996,492
83976,193347,207327,8.170292767700001,-4.4039899953,2.9647072014,493
83335,193058,207177,8.0937224445,-4.366901245,3.0460631697999996,494
82952,192846,207051,7.992027484,-4.5020957219,3.1010980895999998,495
82777,192736,207013,7.920242806,-4.4518464473,3.0927232105,496
82763,192653,206977,8.1140614366,-4.4542392699,3.0029923629999997,497
82904,192722,206939,7.9716884919,-4.353740720699999,3.1238299043,498
83109,192824,207005,7.9585279676,-4.4171505196,3.0604201053999995,499
83273,192826,207043,8.1367932513,-4.5092741897,2.979064137,500
83408,192905,207058,8.0255270004,-4.4410787456,3.0412775246,501
83496,192951,207104,7.956135144999999,-4.4638105603,2.9982067177999996,502
83598,192995,207116,8.0135628874,-4.3357945512,3.0723842184,503
83722,193060,207118,8.039883936,-4.4458643908,3.0640093393,504
83892,193100,207158,7.8388868376,-4.4638105603,3.0544380489000003,505
84054,193184,207198,8.1320076061,-4.4051864066,3.1022945009000003,506
84254,193228,207294,8.0374911134,-4.3513478981,3.0005995404,507
84436,193349,207337,8.0566336942,-4.402793583999999,3.0592236941,508
84632,193433,207410,8.1104722027,-4.5080777784,3.0568308715,509
84817,193509,207433,8.1104722027,-4.4853459636999995,3.0975088557,510
85023,193605,207525,8.063812162,-4.354937132,2.9635107901000004,511
85219,193711,207544,8.1535430095,-4.4817567298,2.9754749031,512
85392,193784,207612,8.0853475654,-4.4434715682,3.0819555088,513
85426,193848,207571,8.027919823,-4.5786660451,2.9395825641,514
84805,193729,207548,8.0733834524,-4.465006971599999,2.9336005076,515
84212,193414,207384,8.170292767700001,-4.378865358,3.038884702,516
83727,193171,207263,7.980063371,-4.3286160834,3.0077780082,517
83451,193049,207197,8.0111700648,-4.5655055207999995,3.098705267,518
83349,192941,207171,8.0231341778,-4.3525443094,2.9527430884,519
83455,192980,207096,8.1463645417,-4.4638105603,3.0221349438,520
83598,193009,207141,8.039883936,-4.42672181,2.9862426048,521
83760,193084,207198,8.171489179,-4.558327053,3.0915267992,522
83869,193122,207201,8.1272219609,-4.4099720518000005,3.0975088557,523
83930,193172,207210,7.998009540499999,-4.4458643908,3.0508488149999997,524
84013,193185,207263,8.070990629799999,-4.3657048337,2.979064137,525
84087,193224,207268,7.984849016199999,-4.3585263658999995,3.0029923629999997,526
84243,193313,207282,8.0925260332,-4.5284167705,3.1094729686999996,527
84368,193341,207299,8.0350982908,-4.4315074552,3.0604201053999995,528
84524,193417,207343,8.075776275,-4.2963129783,3.0759734523,529
84680,193466,207390,8.062615750700001,-4.3944187049,3.0460631697999996,530
84850,193554,207478,8.0769726863,-4.4602213264,2.9551359109999997,531
85041,193653,207499,7.9896346614,-4.4195433422,3.0245277664,532
85215,193727,207523,8.0985080897,-4.5044885445,3.0664021618999997,533
85391,193808,207573,7.9525459111,-4.3250268494999995,3.0604201053999995,534
85465,193891,207640,8.0327054682,-4.415954108299999,3.0281170003,535
85099,193783,207586,8.0147592987,-4.4243289874,2.9647072014,536
84377,193523,207444,8.062615750700001,-4.4673997942,3.0915267992,537
83792,193231,207325,8.0865439767,-4.3884366484,3.0939196218,538
83408,193025,207220,7.9298140964,-4.4973100767,3.0747770410000004,539
83237,192916,207121,7.992027484,-4.5032921331999995,2.9718856692,540
83214,192912,207093,8.1320076061,-4.4793639072,3.0053851856000002,541
83326,192974,207112,8.0063844196,-4.4327038665,3.0963124444,542
83431,192991,207092,8.063812162,-4.5523449965,3.0364918793999998,543
83594,193007,207159,8.0111700648,-4.414757697,2.9970103065,544
83643,193071,207171,8.0805619202,-4.3621155998,3.0412775246,545
83720,193084,207166,7.9776705484,-4.3680976563,3.0269205889999995,546
83770,193098,207196,8.049455226400001,-4.527220359199999,3.0891339766000003,547
83868,193112,207222,8.0386875247,-4.4721854394000005,3.1046873235,548
83985,193189,207259,8.0231341778,-4.3836510032,2.9970103065,549
84137,193263,207262,8.129614783500001,-4.4051864066,3.0604201053999995,550
84309,193305,207334,8.1439717191,-4.4889351976,3.0245277664,551
84470,193385,207409,8.124829138299999,-4.3082770913,3.0675985732,552
84652,193508,207442,7.972884903200001,-4.474578262,3.1190442591,553
84850,193560,207460,8.044669581199999,-4.3609191885,3.0963124444,554
84990,193671,207506,8.159525066,-4.6121655615,3.1298119607999997,555
84668,193601,207500,8.074579863699999,-4.3680976563,3.1058837348,556
83925,193344,207375,8.051848049,-4.4638105603,2.9383861528,557
83208,193013,207207,8.2301133327,-4.3369909625,2.9958138952,558
82739,192750,207095,7.953742322399999,-4.3812581806,3.1381868399,559
82490,192587,206961,8.0183485326,-4.4015971727,3.1034909122000003,560
82429,192548,206935,8.0207413552,-4.3920258823,3.1417760738,561
82495,192555,206931,8.0781690976,-4.3836510032,3.0077780082,562
82691,192573,206940,8.0913296219,-4.4518464473,3.0975088557,563
82875,192691,206966,8.039883936,-4.2867416879,3.1070801461,564
82987,192712,207035,8.2181492197,-4.3369909625,3.0532416376,565
83102,192743,207080,8.0961152671,-4.474578262,3.0556344602,566
83210,192807,207072,8.049455226400001,-4.4841495524,3.0580272828,567
83339,192874,207177,8.124829138299999,-4.4805603185,3.0317062341999996,568
83478,192937,207147,8.0733834524,-4.4039899953,3.0604201053999995,569
83684,192997,207168,8.0817583315,-4.3489550755,3.1094729686999996,570
83802,193062,207242,8.0422767586,-4.3633120111,3.0675985732,571
84112,193156,207348,8.1056865575,-4.402793583999999,3.0723842184,572
84281,193295,207403,8.1128650253,-4.4554356812,3.0556344602,573
84473,193381,207408,7.9381889755,-4.4171505196,2.9838497821999996,574
84703,193463,207521,8.0853475654,-4.4303110439,2.9934210726,575
84818,193543,207576,8.0805619202,-4.3525443094,3.0831519201,576
84930,193618,207607,8.1463645417,-4.510470601,3.2015966388,577
84401,193504,207493,7.9992059518000005,-4.3609191885,2.967100024,578
83610,193147,207364,8.070990629799999,-4.3465622529,3.062812928,579
82971,192866,207211,7.9872418388,-4.4087756405,3.1597222433,580
82592,192639,207078,8.0793655089,-4.5391844722,3.0460631697999996,581
82435,192542,206954,8.0674013959,-4.3573299546,3.014956476,582
82445,192474,206975,7.9058858704,-4.4303110439,2.9479574432,583
82597,192572,206985,8.0985080897,-4.3609191885,3.0675985732,584
82806,192609,207037,7.9585279676,-4.3896330597,3.0604201053999995,585
82970,192671,207045,8.0087772422,-4.4530428586,2.9898318387,586
83099,192701,207103,8.0135628874,-4.4099720518000005,3.0173492985999997,587
83214,192790,207096,8.0362947021,-4.3609191885,2.9862426048,588
83338,192802,207127,8.0015987744,-4.560719875599999,3.0879375653000003,589
83348,192863,207129,8.0099736535,-4.4482572134,3.0508488149999997,590
83629,192936,207142,8.1439717191,-4.5116670123,3.0999016782999997,591
83812,192995,207246,8.0865439767,-4.4733818507,2.9682964353,592
84003,193090,207261,7.972884903200001,-4.382454591899999,3.086741154,593
84208,193158,207351,8.129614783500001,-4.3106699139,3.0604201053999995,594
84436,193249,207385,8.049455226400001,-4.5056849558,3.0484559924,595
84656,193389,207440,8.0554372829,-4.4590249151000005,3.0257241777000004,596
84850,193477,207539,8.0410803473,-4.366901245,3.0939196218,597
85072,193531,207550,8.129614783500001,-4.4841495524,2.9862426048,598
85266,193618,207603,8.01595571,-4.3621155998,3.0735806297,599
85462,193708,207657,8.102097323599999,-4.6133619728,3.1968109935999998,600
85267,193755,207672,7.9417782094,-4.5332024157,3.062812928,601
84589,193510,207577,8.0542408716,-4.4087756405,2.9168507494,602
83862,193237,207377,7.9453674433,-4.5140598349,3.086741154,603
83410,192949,207262,8.0697942185,-4.4374895117,3.1956145822999997,604
83186,192808,207175,7.9310105077,-4.438685923,3.0891339766000003,605
83113,192829,207161,7.986045427500001,-4.5068813671,3.1405796625,606
83200,192798,207181,8.0015987744,-4.3130627365,3.0759734523,607
83386,192851,207170,8.1032937349,-4.4638105603,3.1298119607999997,608
83527,192881,207180,8.049455226400001,-4.3920258823,3.0771698636,609
83630,192967,207272,8.087740388,-4.4219361648,3.0173492985999997,610
83726,192982,207260,8.070990629799999,-4.4315074552,3.0005995404,611
83799,193040,207264,7.9597243789,-4.4303110439,3.0711878071,612
83899,193114,207276,7.992027484,-4.6384866101,3.1645078885,613
84072,193116,207327,7.8640114749,-4.4135612857,3.0771698636,614
84193,193177,207355,8.1212399044,-4.5332024157,3.1286155494999996,615
84324,193262,207384,8.0303126456,-4.3884366484,3.0197421212,616
84535,193348,207438,8.1918281711,-4.3345981399,2.9742784918,617
84728,193391,207497,8.0650085733,-4.5008993106,3.0484559924,618
84915,193519,207545,7.970492080600001,-4.3441694303,3.0783662749,619
85081,193581,207534,8.115257847899999,-4.295116567,3.0077780082,620
85269,193662,207652,7.884350467,-4.5140598349,3.1094729686999996,621
85477,193769,207691,8.1308111948,-4.4315074552,3.0675985732,622
85568,193825,207702,8.1511501869,-4.5367916496,2.9838497821999996,623
85216,193787,207671,8.0350982908,-4.5176490688,2.9694928465999997,624
84585,193503,207605,8.0255270004,-4.4482572134,3.0460631697999996,625
83992,193241,207393,8.075776275,-4.4673997942,3.1298119607999997,626
83689,193072,207307,8.027919823,-4.6025942711,3.0364918793999998,627
83566,193017,207270,7.9549387337,-4.5164526575,3.0580272828,628
83570,192996,207235,8.1056865575,-4.4243289874,3.0819555088,629
83716,193029,207276,8.1367932513,-4.4542392699,3.1740791789,630
83872,193087,207313,7.8795648218,-4.465006971599999,3.0556344602,631
84001,193129,207293,8.0853475654,-4.3178483817,3.1429724850999996,632
84081,193180,207351,8.0422767586,-4.5595234643,3.0197421212,633
84145,193220,207348,8.0434731699,-4.486542375,2.9982067177999996,634
84230,193231,207334,8.102097323599999,-4.4434715682,2.9934210726,635
84352,193264,207420,8.129614783500001,-4.450650036,3.1286155494999996,636
84484,193315,207442,7.9310105077,-4.4039899953,3.038884702,637
84619,193379,207466,7.970492080600001,-4.3776689467,3.0747770410000004,638
84745,193460,207495,7.9334033303,-4.465006971599999,2.9814569596,639
84952,193544,207531,8.1511501869,-4.510470601,3.11066938,640
85106,193619,207582,8.0063844196,-4.3250268494999995,3.098705267,641
85285,193714,207611,8.0913296219,-4.5415772948,3.1010980895999998,642
85446,193752,207705,8.0099736535,-4.366901245,2.9766713144,643
85616,193807,207717,8.057830105499999,-4.510470601,3.0173492985999997,644
85578,193909,207733,7.969295669299999,-4.4303110439,3.0652057506,645
85042,193782,207659,7.9585279676,-4.4350966891,3.0819555088,646
84312,193462,207534,8.0243305891,-4.4817567298,3.1010980895999998,647
83732,193182,207363,8.061419339399999,-4.4075792292,3.0065815969000003,648
83408,193002,207281,7.902296636499999,-4.534398827,3.0053851856000002,649
83277,192927,207224,8.003991596999999,-4.5176490688,3.0221349438,650
83315,192945,207204,8.039883936,-4.3848474145,3.0771698636,651
83450,192968,207269,8.0063844196,-4.438685923,3.014956476,652
83590,193056,207233,8.0135628874,-4.3633120111,3.0137600647,653
83704,193085,207282,7.9477602659,-4.3465622529,3.1429724850999996,654
83709,193122,207273,8.1092757914,-4.2999022122,3.0783662749,655
83756,193104,207293,8.017152121299999,-4.4075792292,3.1070801461,656
83844,193123,207302,7.9716884919,-4.4889351976,3.0041887742999998,657
83941,193199,207328,7.969295669299999,-4.3130627365,3.0532416376,658
84067,193183,207349,7.9657064354,-4.3214376156,3.0532416376,659
84216,193290,207325,7.9908310727,-4.4458643908,2.9862426048,660
84373,193377,207420,8.185846114599999,-4.5176490688,3.1118657913,661
84566,193416,207491,8.0231341778,-4.4243289874,3.1956145822999997,662
84729,193529,207544,7.9716884919,-4.4841495524,3.1477581302999997,663
84894,193577,207597,7.928617685100001,-4.4458643908,3.0747770410000004,664
85036,193688,207669,7.9549387337,-4.4494536247,3.0329026454999997,665
84775,193654,207624,7.911867926899999,-4.4099720518000005,3.1130622026,666
83975,193401,207469,8.111668614,-4.4135612857,3.0305098229,667
83195,193046,207342,8.0350982908,-4.3944187049,3.1334011947,668
82626,192790,207189,7.953742322399999,-4.4554356812,3.0711878071,669
82359,192641,207051,8.061419339399999,-4.4243289874,3.0484559924,670
82150,192563,207029,7.8927253461,-4.474578262,3.062812928,671
82268,192524,207007,8.0781690976,-4.3800617693,2.9958138952,672
82449,192584,207040,8.0685978072,-4.4841495524,3.1453653077,673
82651,192607,207085,8.070990629799999,-4.4063828179,3.1010980895999998,674
82792,192716,207106,8.0327054682,-4.4721854394000005,3.086741154,675
82875,192719,207119,8.1188470818,-4.3513478981,3.0281170003,676
83015,192756,207125,8.0243305891,-4.4578285038,3.0675985732,677
83125,192824,207198,8.0434731699,-4.4123648744,3.1405796625,678
83275,192875,207206,8.0937224445,-4.438685923,3.0675985732,679
83450,192967,207258,8.0111700648,-4.4889351976,3.11066938,680
83662,193026,207317,8.1104722027,-4.4913280202,3.0317062341999996,681
83852,193123,207364,8.0554372829,-4.382454591899999,2.9922246613000003,682
84060,193209,207415,7.940581798099999,-4.3082770913,3.0460631697999996,683
84271,193291,207443,8.0985080897,-4.4111684631,2.9611179675,684
84487,193381,207523,8.1391860739,-4.4961136654,3.1010980895999998,685
84685,193506,207547,7.9824561936,-4.4482572134,3.0975088557,686
84820,193582,207637,7.972884903200001,-4.5906301581,3.1322047834,687
84456,193537,207598,8.0566336942,-4.465006971599999,2.9575287336000002,688
83639,193267,207483,8.0303126456,-4.42672181,3.0532416376,689
82901,192891,207273,8.0805619202,-4.3585263658999995,3.0556344602,690
82432,192662,207137,7.992027484,-4.4697926167999995,3.086741154,691
82220,192511,207071,8.0566336942,-4.4111684631,3.1286155494999996,692
82194,192489,207029,7.9633136127999995,-4.3142591478000005,3.0245277664,693
82321,192491,207036,7.9262248625,-4.5619162869,3.1274191382,694
82511,192586,207051,8.0410803473,-4.3992043501,3.1609186546,695
82714,192628,207121,8.049455226400001,-4.4087756405,3.0652057506,696
82844,192670,207144,7.9992059518000005,-4.4482572134,3.038884702,697
82956,192767,207136,8.0793655089,-4.5332024157,3.0604201053999995,698
83078,192803,207157,8.0315090569,-4.3441694303,3.1357940173,699
83203,192872,207204,7.9513494998,-4.3956151162,3.1166514365,700
83368,192906,207257,8.062615750700001,-4.5008993106,3.0520452262999997,701
83455,192976,207305,8.0506516377,-4.331008906,3.1573294206999996,702
83725,193055,207346,8.0231341778,-4.4207397534999995,3.0975088557,703
83928,193173,207384,7.9477602659,-4.558327053,3.0783662749,704
84155,193274,207428,7.908278693,-4.4398823343,3.0616165167,705
84384,193336,207503,7.984849016199999,-4.3704904789,3.0879375653000003,706
84571,193424,207525,8.185846114599999,-4.42672181,3.0412775246,707
84772,193581,207610,8.0004023631,-4.558327053,3.0125636533999995,708
84981,193662,207687,7.9621172015,-4.4219361648,3.062812928,709
85175,193754,207724,8.1439717191,-4.4362931003999995,3.1537401868,710
85050,193806,207789,7.9992059518000005,-4.4733818507,3.0999016782999997,711
84475,193661,207662,8.0590265168,-4.5415772948,2.9718856692,712
83710,193324,207515,8.1367932513,-4.4339002778,3.0101708308,713
83090,193084,207376,8.075776275,-4.4183469309,3.146561719,714
82774,192969,207283,8.0793655089,-4.4327038665,3.0604201053999995,715
82678,192854,207228,8.01595571,-4.4685962055,2.9958138952,716
82733,192911,207274,8.0422767586,-4.4602213264,3.0903303879,717
82971,192944,207251,8.111668614,-4.4554356812,3.1417760738,718
83134,193021,207325,8.0793655089,-4.382454591899999,3.0029923629999997,719
83276,193102,207337,8.0327054682,-4.4422751569,3.1274191382,720
83377,193151,207378,8.160721477300001,-4.5655055207999995,3.0317062341999996,721
83464,193207,207427,7.9968131291999995,-4.4673997942,3.0412775246,722
83585,193259,207399,8.0733834524,-4.522434714,3.0053851856000002,723
83706,193314,207432,8.0075808309,-4.492524431500001,3.1178478478000002,724
83847,193382,207471,8.0374911134,-4.462614149,3.1740791789,725
84030,193453,207487,8.0506516377,-4.4793639072,3.0675985732,726
84199,193506,207549,8.051848049,-4.4410787456,3.0903303879,727
84394,193569,207577,8.0697942185,-4.4015971727,3.0269205889999995,728
84609,193674,207665,8.0422767586,-4.4410787456,3.0747770410000004,729
84754,193777,207682,8.0207413552,-4.4422751569,3.0699913958000002,730
84957,193871,207725,8.1439717191,-4.4374895117,3.0819555088,731
85198,193942,207773,8.044669581199999,-4.4841495524,3.0604201053999995,732
85369,194052,207867,7.9716884919,-4.320241204299999,3.1058837348,733
85539,194118,207886,7.9740813145,-4.4937208428,3.182454058,734
85403,194177,207903,7.915457160799999,-4.510470601,3.0269205889999995,735
84776,194018,207847,8.0255270004,-4.3728833015,3.0532416376,736
84048,193804,207728,8.0733834524,-4.2963129783,3.1334011947,737
83529,193603,207606,7.968099258,-4.390829471,3.0317062341999996,738
83282,193533,207549,8.0901332106,-4.5008993106,3.0723842184,739
83222,193460,207518,7.9058858704,-4.319044793,3.0460631697999996,740
83317,193509,207508,8.0590265168,-4.4362931003999995,3.1142586138999997,741
83497,193518,207538,8.084151154099999,-4.4841495524,3.1214370817,742
83638,193604,207557,8.0075808309,-4.5056849558,3.146561719,743
83739,193606,207546,8.061419339399999,-4.3369909625,3.1621150658999997,744
83786,193647,207587,8.0099736535,-4.3585263658999995,3.0340990568,745
83862,193679,207587,8.1631142999,-4.465006971599999,3.0675985732,746
83950,193747,207646,8.0087772422,-4.4374895117,3.1573294206999996,747
84048,193777,207640,8.0650085733,-4.4219361648,3.1429724850999996,748
84180,193860,207675,8.0327054682,-4.438685923,3.0604201053999995,749
84337,193875,207712,7.9896346614,-4.414757697,3.0484559924,750
84485,193951,207728,8.0195449439,-4.5116670123,3.0963124444,751
84659,194016,207777,7.9657064354,-4.3992043501,3.0963124444,752
84893,194101,207817,8.0135628874,-4.4554356812,3.0675985732,753
85027,194186,207873,7.9609207902,-4.4183469309,3.0412775246,754
85128,194232,207895,7.920242806,-4.486542375,3.0747770410000004,755
85310,194358,207937,7.9896346614,-4.5798624564,3.1968109935999998,756
85021,194341,207962,7.9238320399,-4.42672181,3.0496524037,757
84228,194104,207849,7.9657064354,-4.42672181,3.0305098229,758
83382,193864,207662,8.1104722027,-4.5128634236,3.0293134116,759
82822,193650,207573,8.0685978072,-4.5248275366,3.0843483314,760
82533,193561,207510,8.0183485326,-4.4602213264,3.0269205889999995,761
82428,193494,207475,7.9585279676,-4.5032921331999995,3.1381868399,762
82514,193508,207492,7.9597243789,-4.4434715682,3.0879375653000003,763
82708,193554,207468,7.9417782094,-4.5080777784,3.0077780082,764
82888,193572,207486,7.9968131291999995,-4.3633120111,3.1082765574000004,765
82987,193640,207502,8.0075808309,-4.415954108299999,3.1058837348,766
83090,193644,207570,7.9956167179,-4.4518464473,3.0293134116,767
83166,193721,207545,8.0434731699,-4.5846481016,3.0532416376,768
83279,193800,207578,7.9752777258,-4.4913280202,3.0843483314,769
83398,193802,207574,7.9956167179,-4.4602213264,3.0364918793999998,770
83569,193916,207598,7.992027484,-4.465006971599999,3.0269205889999995,771
83745,193932,207676,8.0542408716,-4.3298124947,3.0939196218,772
83938,194041,207751,8.0542408716,-4.4853459636999995,3.1513473642000003,773
84127,194100,207753,8.0362947021,-4.5296131818,3.0484559924,774
84347,194217,207830,8.0315090569,-4.5786660451,3.0053851856000002,775
84559,194313,207859,8.1080793801,-4.4063828179,3.1202406704,776
84753,194362,207944,8.1128650253,-4.3932222936,3.014956476,777
84908,194512,207982,8.039883936,-4.438685923,3.1896325258,778
84880,194536,208048,7.9992059518000005,-4.5451665287,3.0340990568,779
84173,194436,207961,7.9992059518000005,-4.3226340269,3.0017959517,780
83353,194281,207890,8.0542408716,-4.2843488653,3.0664021618999997,781
82788,194136,207861,8.0733834524,-4.3944187049,3.1752755902,782
82514,194114,207740,8.063812162,-4.527220359199999,3.1058837348,783
82427,194098,207759,7.7802626839,-4.5260239479,3.1058837348,784
82543,194110,207771,7.9896346614,-4.4135612857,2.9850461935,785
82763,194205,207781,8.1260255496,-4.5810588676999995,3.1274191382,786
83010,194245,207877,8.1344004287,-4.3369909625,3.1489545415999998,787
83217,194305,207862,7.8652078862,-4.4458643908,3.0795626862,788
83394,194419,207898,8.0889367993,-4.3274196721000004,3.0699913958000002,789
83572,194460,207929,8.075776275,-4.5559342304,3.0221349438,790
83744,194531,207967,8.0506516377,-4.5056849558,2.9850461935,791
83948,194589,208003,8.063812162,-4.4279182213,3.1094729686999996,792
84159,194667,208074,7.968099258,-4.4004007614,3.0795626862,793
84440,194729,208097,7.9166535721,-4.5080777784,3.0221349438,794
84691,194833,208087,7.9992059518000005,-4.4757746733,3.0975088557,795
84966,194906,208152,8.0829547428,-4.4709890281,3.1381868399,796
85293,194992,208212,7.9968131291999995,-4.5176490688,3.1908289370999996,797
85544,195061,208242,8.0111700648,-4.5439701174,3.0448667585,798
85812,195172,208280,8.005188008300001,-4.4111684631,3.0436703472,799
86060,195261,208320,8.0685978072,-4.5200418914,3.0915267992,800
86326,195347,208392,8.0099736535,-4.4494536247,3.086741154,801
86250,195324,208397,8.0817583315,-4.3932222936,2.9623143788,802
86130,195350,208371,7.9381889755,-4.42672181,3.1214370817,803
86084,195312,208410,8.0135628874,-4.4697926167999995,3.1549365981,804
86109,195339,208359,7.953742322399999,-4.3848474145,3.2075786953,805
86225,195355,208423,8.0350982908,-4.4398823343,3.1310083721,806
86394,195381,208425,8.084151154099999,-4.415954108299999,3.0699913958000002,807
86624,195444,208462,8.0434731699,-4.498506487999999,3.1369904286000003,808
86837,195480,208490,8.0015987744,-4.4279182213,3.1405796625,809
87064,195610,208510,7.957331556300001,-4.4135612857,3.1130622026,810
87288,195635,208584,8.0470624038,-4.4004007614,3.0101708308,811
87474,195664,208607,7.9465638546,-4.450650036,3.0855447427,812
87695,195741,208603,7.970492080600001,-4.3776689467,3.1058837348,813
87901,195810,208594,8.0327054682,-4.4063828179,3.1417760738,814
88134,195905,208628,8.0386875247,-4.4446679795,3.1082765574000004,815
88355,195889,208668,8.0087772422,-4.438685923,3.0460631697999996,816
88560,195992,208666,8.0027951857,-4.5248275366,3.1274191382,817
88773,196075,208731,8.0793655089,-4.3716868902,3.1561330094,818
88984,196148,208809,8.0865439767,-4.5355952383,3.2099715178999997,819
89195,196186,208779,8.0733834524,-4.3980079388,3.0687949845,820
89410,196255,208840,8.0781690976,-4.5451665287,3.0005995404,821
89594,196341,208838,7.9477602659,-4.320241204299999,3.1657042998000002,822
89756,196404,208839,7.984849016199999,-4.5355952383,3.1322047834,823
89872,196411,208883,8.0147592987,-4.4697926167999995,3.0305098229,824
89949,196456,208890,8.0087772422,-4.4542392699,3.0711878071,825
90067,196488,208917,8.1918281711,-4.4315074552,3.1250263156,826
90200,196510,208897,8.0135628874,-4.4793639072,3.1226334930000004,827
90334,196572,208921,7.9740813145,-4.3968115275,3.0939196218,828
90467,196595,208956,7.9968131291999995,-4.4219361648,3.0699913958000002,829
90629,196646,208988,8.0183485326,-4.5320060043999995,3.0903303879,830
90772,196750,209023,7.9178499834,-4.5631126982,3.086741154,831
90911,196719,209056,8.1391860739,-4.5212383027000005,3.0939196218,832
91028,196763,209042,8.0530444603,-4.4877387863000004,3.0699913958000002,833
91160,196804,209034,8.061419339399999,-4.353740720699999,3.0556344602,834
91296,196845,209074,7.9166535721,-4.4494536247,3.1393832512,835
91328,196929,209109,8.0087772422,-4.5092741897,3.1154550251999997,836
91537,196948,209131,8.0099736535,-4.5092741897,3.0556344602,837
91664,196980,209177,8.027919823,-4.4123648744,3.0675985732,838
91790,197040,209193,7.984849016199999,-4.3800617693,3.0699913958000002,839
91921,197101,209201,8.0350982908,-4.4362931003999995,3.1310083721,840
92036,197129,209200,7.872386354,-4.3992043501,3.0053851856000002,841
92151,197179,209203,8.0554372829,-4.4231325760999995,3.0843483314,842
92282,197215,209228,7.9549387337,-4.5248275366,3.2207392196,843
92347,197271,209207,8.124829138299999,-4.4183469309,2.9300112737000004,844
92390,197293,209254,8.0386875247,-4.415954108299999,3.0293134116,845
92450,197279,209249,7.992027484,-4.3836510032,3.1357940173,846
92556,197302,209252,8.0350982908,-4.3800617693,3.0137600647,847
92622,197342,209284,7.980063371,-4.4673997942,3.0364918793999998,848
92721,197382,209279,7.9740813145,-4.4123648744,3.0197421212,849
92806,197441,209333,8.0697942185,-4.5032921331999995,3.1094729686999996,850
92929,197473,209344,8.01595571,-4.5176490688,3.1657042998000002,851
93016,197469,209298,8.0075808309,-4.5068813671,3.0245277664,852
93098,197485,209337,8.1080793801,-4.3513478981,3.0903303879,853
93159,197524,209343,7.927421273799999,-4.3968115275,3.0113672421,854
93241,197566,209382,8.0961152671,-4.387240237099999,3.038884702,855
93309,197607,209355,7.9501530885,-4.5511485852,3.0652057506,856
93403,197614,209398,8.0554372829,-4.4889351976,3.1058837348,857
93497,197634,209397,8.0063844196,-4.560719875599999,3.0999016782999997,858
93566,197667,209433,8.1200434931,-4.414757697,3.0221349438,859
93656,197735,209400,7.9465638546,-4.4578285038,3.0197421212,860
93738,197741,209450,8.0829547428,-4.3369909625,3.1537401868,861
93815,197781,209457,8.1200434931,-4.560719875599999,3.0412775246,862
93881,197802,209478,8.074579863699999,-4.4721854394000005,3.0747770410000004,863
93914,197863,209494,7.884350467,-4.4255253987,3.0364918793999998,864
93920,197808,209434,7.9369925642,-4.4183469309,3.0771698636,865
93957,197786,209420,7.9489566772,-4.4841495524,3.1393832512,866
93933,197841,209483,8.0004023631,-4.4243289874,3.1489545415999998,867
94060,197847,209499,8.0087772422,-4.5128634236,3.1417760738,868
94152,197925,209471,7.984849016199999,-4.3752761241,3.0903303879,869
94178,197921,209463,7.969295669299999,-4.387240237099999,3.0173492985999997,870
94244,197964,209522,7.9369925642,-4.4063828179,3.1525437755,871
94343,197959,209462,7.9944203065999995,-4.4733818507,3.1142586138999997,872
94356,197980,209482,8.0087772422,-4.5511485852,3.1178478478000002,873
94397,197954,209515,7.9357961529,-4.4554356812,3.0699913958000002,874
94462,198013,209523,7.972884903200001,-4.5128634236,3.1022945009000003,875
94515,198025,209496,8.0721870411,-4.4518464473,3.0532416376,876
94562,198066,209515,7.984849016199999,-4.4374895117,3.1369904286000003,877
94630,198104,209483,8.102097323599999,-4.4123648744,3.1369904286000003,878
94676,198110,209547,8.0327054682,-4.498506487999999,3.0699913958000002,879
94749,198119,209520,8.0769726863,-4.4602213264,3.1633114771999997,880
94810,198161,209555,8.0231341778,-4.5882373355,3.0532416376,881
94849,198151,209532,8.0315090569,-4.498506487999999,3.1010980895999998,882
94906,198214,209579,8.0087772422,-4.4207397534999995,3.1645078885,883
94977,198234,209567,8.1032937349,-4.5164526575,3.2338997439000003,884
95033,198208,209551,7.9226356286,-4.5978086259,3.0556344602,885
94989,198217,209565,8.0123664761,-4.4757746733,3.0317062341999996,886
94971,198192,209564,7.9992059518000005,-4.4470608021,3.1082765574000004,887
94996,198229,209570,8.0721870411,-4.4422751569,3.098705267,888
95042,198242,209612,7.980063371,-4.6049870937,3.1322047834,889
95073,198272,209568,8.026723411699999,-4.5200418914,3.0101708308,890
95108,198246,209608,7.9633136127999995,-4.3513478981,3.0448667585,891
95147,198343,209606,7.9968131291999995,-4.474578262,3.1262227269,892
95196,198341,209605,7.9034930478000005,-4.5415772948,3.1286155494999996,893
95131,198386,209612,8.0781690976,-4.5810588676999995,3.146561719,894
95253,198366,209595,8.102097323599999,-4.5128634236,3.0604201053999995,895
95288,198392,209615,7.956135144999999,-4.4841495524,2.9706892578999997,896
95327,198366,209617,7.9944203065999995,-4.4111684631,3.1226334930000004,897
95362,198398,209624,7.972884903200001,-4.5200418914,3.158525832,898
95388,198434,209638,8.1200434931,-4.4219361648,3.1322047834,899
95477,198432,209598,8.129614783500001,-4.4793639072,3.0747770410000004,900
95482,198412,209625,7.9585279676,-4.4374895117,3.0269205889999995,901
95500,198455,209653,8.087740388,-4.4721854394000005,3.0843483314,902
95556,198478,209620,8.0303126456,-4.3728833015,3.0915267992,903
95589,198475,209628,7.968099258,-4.4171505196,3.158525832,904
95644,198460,209614,8.0913296219,-4.5152562462,2.9599215562,905
95677,198533,209623,7.9345997416,-4.4566320925,3.1621150658999997,906
95700,198523,209632,8.1260255496,-4.5200418914,3.0305098229,907
95666,198524,209677,8.0207413552,-4.4554356812,3.0101708308,908
95610,198501,209635,8.0315090569,-4.4961136654,3.0747770410000004,909
95562,198549,209598,8.044669581199999,-4.3513478981,3.0819555088,910
95533,198544,209660,7.9262248625,-4.4829531411,3.1992038162000003,911
95504,198539,209633,8.0087772422,-4.6073799163,3.0675985732,912
95494,198578,209631,8.0004023631,-4.4578285038,3.1022945009000003,913
95495,198560,209601,7.9968131291999995,-4.4697926167999995,3.1178478478000002,914
95500,198594,209630,8.0985080897,-4.522434714,3.1010980895999998,915
95485,198535,209656,8.0327054682,-4.3345981399,3.1812576466999998,916
95449,198568,209595,8.063812162,-4.3369909625,3.1381868399,917
95455,198608,209631,8.0805619202,-4.4602213264,3.098705267,918
95372,198583,209627,7.9896346614,-4.4219361648,3.0580272828,919
95429,198582,209601,8.0075808309,-4.3740797127999995,3.1417760738,920
95390,198615,209613,7.9034930478000005,-4.4566320925,3.0819555088,921
95358,198619,209633,8.1092757914,-4.6145583840999995,3.0771698636,922
95367,198610,209560,8.0087772422,-4.4434715682,3.0771698636,923
95345,198618,209605,7.9489566772,-4.4554356812,3.0508488149999997,924
95358,198582,209584,8.115257847899999,-4.4123648744,3.086741154,925
95382,198650,209619,7.9214392173,-4.5284167705,3.11066938,926
95360,198653,209595,8.0961152671,-4.415954108299999,3.0580272828,927
95372,198643,209590,8.087740388,-4.4805603185,3.158525832,928
95326,198664,209627,7.9477602659,-4.4362931003999995,3.1202406704,929
95123,198626,209588,7.9884382501,-4.5128634236,2.9934210726,930
94814,198608,209564,8.0231341778,-4.390829471,3.2171499857,931
94478,198581,209518,8.0590265168,-4.4051864066,3.0580272828,932
94162,198596,209501,7.9381889755,-4.6875394734,3.1238299043,933
93941,198564,209494,8.062615750700001,-4.6002014485,3.1010980895999998,934
93700,198568,209487,8.0733834524,-4.4566320925,3.0340990568,935
93526,198585,209447,8.063812162,-4.5140598349,3.0329026454999997,936
93400,198520,209455,8.0327054682,-4.4279182213,3.1788648241,937
93251,198554,209427,8.087740388,-4.3645084224,3.1010980895999998,938
93077,198504,209353,7.980063371,-4.3298124947,3.0317062341999996,939
92897,198482,209390,8.0937224445,-4.5403808835,3.1214370817,940
92758,198499,209362,7.9836526049,-4.5128634236,3.0843483314,941
92591,198475,209324,8.005188008300001,-4.534398827,3.0939196218,942
92486,198478,209272,8.039883936,-4.522434714,3.1884361145,943
92391,198477,209293,7.9501530885,-4.465006971599999,3.0963124444,944
92313,198482,209293,8.0123664761,-4.5116670123,3.1154550251999997,945
92241,198454,209275,8.1344004287,-4.4195433422,3.1525437755,946
92192,198473,209270,8.0087772422,-4.498506487999999,3.1154550251999997,947
92166,198472,209234,8.115257847899999,-4.4111684631,3.2315069213,948
92094,198495,209214,7.980063371,-4.606183505,3.1298119607999997,949
91803,198452,209207,8.062615750700001,-4.4087756405,2.9216363945999997,950
91214,198347,209098,8.0470624038,-4.5655055207999995,3.0484559924,951
90579,198322,209103,7.980063371,-4.4494536247,3.1657042998000002,952
90012,198251,209034,7.9752777258,-4.5164526575,3.1417760738,953
89571,198226,208983,8.044669581199999,-4.4757746733,3.038884702,954
89239,198181,208926,8.003991596999999,-4.4039899953,3.0604201053999995,955
89012,198158,208916,8.1439717191,-4.486542375,3.0723842184,956
88903,198135,208898,8.051848049,-4.4697926167999995,3.0209385325,957
88741,198115,208851,8.049455226400001,-4.5978086259,3.1621150658999997,958
88613,198065,208883,8.0243305891,-4.4769710846,3.1334011947,959
88464,198091,208788,8.0829547428,-4.4207397534999995,2.9647072014,960
88387,198062,208758,8.0482588151,-4.4841495524,3.0532416376,961
88249,198032,208765,7.9824561936,-4.5415772948,3.1010980895999998,962
88099,197983,208758,8.0255270004,-4.4207397534999995,3.1812576466999998,963
88190,197984,208707,7.9824561936,-4.4578285038,3.1501509529,964
88183,198011,208713,8.027919823,-4.486542375,3.1286155494999996,965
88206,197969,208687,8.0685978072,-4.4099720518000005,3.0843483314,966
88219,198002,208716,7.992027484,-4.5080777784,3.146561719,967
88283,197973,208720,8.1128650253,-4.2819560427,3.0771698636,968
88294,197964,208691,8.0590265168,-4.5535414078,3.2362925665,969
87999,197940,208689,8.0207413552,-4.2652062845000005,3.0556344602,970
87319,197842,208592,8.0937224445,-4.4817567298,3.1525437755,971
86608,197739,208549,8.0721870411,-4.3585263658999995,3.1274191382,972
86064,197678,208473,7.9465638546,-4.3944187049,3.1513473642000003,973
85630,197609,208439,7.9513494998,-4.3920258823,3.1788648241,974
85338,197520,208391,8.1523465982,-4.4793639072,3.1669007111,975
85348,197524,208336,8.0590265168,-4.4374895117,3.1417760738,976
85318,197437,208311,8.049455226400001,-4.5044885445,3.2147571631,977
85347,197452,208325,7.9011002251999995,-4.4374895117,3.0963124444,978
85361,197461,208318,7.9752777258,-4.498506487999999,3.0460631697999996,979
85350,197415,208283,8.0195449439,-4.4339002778,3.1405796625,980
85371,197444,208266,7.992027484,-4.4039899953,3.0592236941,981
85383,197372,208290,8.0458659925,-4.4063828179,3.1513473642000003,982
85441,197384,208277,7.968099258,-4.5631126982,3.1226334930000004,983
85520,197378,208305,8.0482588151,-4.4015971727,3.1034909122000003,984
85634,197399,208301,7.9944203065999995,-4.527220359199999,3.1322047834,985
85755,197408,208290,8.0590265168,-4.4350966891,3.0664021618999997,986
85892,197448,208308,8.005188008300001,-4.4458643908,3.062812928,987
86057,197449,208326,8.1427753078,-4.4662033829,3.1226334930000004,988
86107,197440,208305,7.9872418388,-4.5714875773,3.0484559924,989
86320,197478,208298,7.911867926899999,-4.558327053,3.1992038162000003,990
86232,197455,208361,8.075776275,-4.3992043501,3.1525437755,991
85703,197379,208302,7.9872418388,-4.5379880609,3.0807590974999997,992
85024,197248,208209,7.8352976037,-4.3860438258,3.0604201053999995,993
84502,197159,208165,8.1032937349,-4.4673997942,3.1082765574000004,994
84176,197105,208167,7.984849016199999,-4.486542375,3.1238299043,995
84035,197041,208109,7.9417782094,-4.4961136654,3.1262227269,996
84026,197019,208091,8.0255270004,-4.5523449965,3.0891339766000003,997
84145,197003,208073,7.9357961529,-4.42672181,3.1657042998000002,998
84297,196989,208045,7.9884382501,-4.4578285038,3.11066938,999
84426,196994,208085,8.0147592987,-4.42672181,3.0664021618999997,1000
84504,196994,208104,7.932206919,-4.5308095931,3.1130622026,1001
84582,196988,208081,8.0650085733,-4.54636294,3.1286155494999996,1002
84710,196946,208060,7.9585279676,-4.5140598349,3.1226334930000004,1003
84838,197009,208114,7.9669028467,-4.5200418914,3.1968109935999998,1004
85012,197004,208136,7.953742322399999,-4.465006971599999,3.0699913958000002,1005
85195,196997,208140,8.0458659925,-4.415954108299999,3.062812928,1006
85347,197038,208189,8.0937224445,-4.3848474145,3.1226334930000004,1007
85592,197047,208165,7.968099258,-4.5523449965,3.1992038162000003,1008
85782,197059,208192,7.9465638546,-4.4578285038,3.1489545415999998,1009
85999,197119,208190,7.9585279676,-4.4697926167999995,3.1082765574000004,1010
86192,197153,208241,8.057830105499999,-4.3920258823,3.0927232105,1011
86395,197161,208255,7.9489566772,-4.4913280202,3.1800612354,1012
86417,197194,208247,8.01595571,-4.4422751569,3.0460631697999996,1013
86081,197153,208245,7.9214392173,-4.4015971727,3.0556344602,1014
85807,197028,208178,7.9944203065999995,-4.3932222936,3.1525437755,1015
85582,196986,208140,7.927421273799999,-4.5415772948,3.1154550251999997,1016
85472,196942,208114,8.0530444603,-4.527220359199999,3.0879375653000003,1017
85502,196902,208076,8.0434731699,-4.4841495524,3.098705267,1018
85590,196865,208061,7.9932238953,-4.474578262,3.1226334930000004,1019
85757,196868,208050,7.8640114749,-4.3848474145,3.1453653077,1020
85933,196929,208070,7.9657064354,-4.4291146326,3.1178478478000002,1021
86052,196900,208055,8.0566336942,-4.5044885445,3.0819555088,1022
86189,196953,208132,8.027919823,-4.5834516903,3.0771698636,1023
86332,196902,208114,7.8568330071,-4.42672181,3.0795626862,1024
86461,196935,208133,7.9262248625,-4.3465622529,3.1884361145,1025
86624,196933,208137,8.0255270004,-4.4602213264,3.0556344602,1026
86809,196982,208155,7.9908310727,-4.4339002778,3.1226334930000004,1027
86987,197000,208191,8.1631142999,-4.5547378191000005,3.1453653077,1028
87188,197029,208189,8.026723411699999,-4.4697926167999995,3.1968109935999998,1029
87372,197062,208194,7.9489566772,-4.366901245,3.158525832,1030
87572,197094,208214,7.927421273799999,-4.5367916496,3.0891339766000003,1031
87762,197125,208263,8.0566336942,-4.3920258823,3.1250263156,1032
87908,197145,208259,7.9489566772,-4.4578285038,3.2027930501,1033
87897,197178,208256,7.980063371,-4.3716868902,3.0484559924,1034
87755,197059,208169,8.062615750700001,-4.438685923,3.1058837348,1035
87661,196981,208190,7.9992059518000005,-4.5499521739,3.1298119607999997,1036
87612,196989,208144,7.970492080600001,-4.5140598349,3.1154550251999997,1037
87632,196897,208133,7.9956167179,-4.4913280202,3.0508488149999997,1038
87625,196883,208124,7.9776705484,-4.4530428586,3.1334011947,1039
87869,196890,208119,7.980063371,-4.5403808835,3.1202406704,1040
87972,196876,208075,7.844868894099999,-4.527220359199999,3.1441688964,1041
88095,196875,208113,8.0255270004,-4.402793583999999,3.2004002275,1042
88204,196917,208157,7.9298140964,-4.4063828179,3.0939196218,1043
88328,196864,208131,7.984849016199999,-4.4315074552,3.1142586138999997,1044
88452,196908,208097,8.1212399044,-4.5535414078,3.1082765574000004,1045
88563,196898,208191,8.0865439767,-4.4303110439,3.0963124444,1046
88692,196929,208180,8.0685978072,-4.4602213264,3.1680971224,1047
88830,196974,208159,7.968099258,-4.5152562462,3.0604201053999995,1048
88987,196974,208203,7.927421273799999,-4.5008993106,3.0711878071,1049
89140,197029,208250,8.0374911134,-4.4374895117,3.1716863562999995,1050
89300,197072,208251,8.1798640581,-4.5678983434,3.1058837348,1051
89446,197071,208300,8.074579863699999,-4.4518464473,3.1537401868,1052
89519,197100,208243,8.0135628874,-4.5032921331999995,3.134597606,1053
89444,197063,208270,7.9345997416,-4.5320060043999995,3.014956476,1054
89282,196996,208229,7.944171031999999,-4.486542375,3.158525832,1055
89148,196888,208158,8.0721870411,-4.4123648744,3.1489545415999998,1056
89045,196820,208126,8.0865439767,-4.5320060043999995,3.0675985732,1057
88983,196783,208089,7.9465638546,-4.4841495524,3.0759734523,1058
88987,196766,208100,8.0303126456,-4.4602213264,3.0855447427,1059
89045,196685,208063,7.9932238953,-4.5918265694,3.1190442591,1060
89109,196740,208060,7.9142607494999995,-4.4841495524,3.0939196218,1061
89154,196724,208081,8.061419339399999,-4.4255253987,3.0843483314,1062
89210,196710,208078,8.1200434931,-4.5391844722,3.1118657913,1063
89258,196763,208083,7.9058858704,-4.4542392699,3.1501509529,1064
89334,196745,208099,8.044669581199999,-4.4733818507,3.1142586138999997,1065
89368,196802,208092,7.911867926899999,-4.5320060043999995,3.1286155494999996,1066
89467,196751,208102,8.0327054682,-4.4673997942,3.1441688964,1067
89561,196796,208116,8.0721870411,-4.4171505196,3.1226334930000004,1068
89643,196824,208163,7.9142607494999995,-4.4602213264,3.1238299043,1069
89749,196815,208177,7.9465638546,-4.415954108299999,3.1190442591,1070
89891,196862,208221,7.984849016199999,-4.450650036,3.0891339766000003,1071
89940,196916,208218,8.1188470818,-4.4374895117,3.1800612354,1072
89846,196894,208213,7.970492080600001,-4.3992043501,3.0879375653000003,1073
89533,196803,208133,8.039883936,-4.4697926167999995,3.0831519201,1074
89139,196709,208069,8.1224363157,-4.4901316089,3.1740791789,1075
88803,196557,208042,7.9812597822999996,-4.5439701174,3.1896325258,1076
88546,196518,208006,7.956135144999999,-4.6695933039,3.1034909122000003,1077
88408,196460,207981,8.0769726863,-4.474578262,3.0843483314,1078
88292,196437,207955,7.9944203065999995,-4.5559342304,3.0652057506,1079
88294,196414,207936,7.9824561936,-4.4291146326,3.1800612354,1080
88317,196439,207922,7.927421273799999,-4.3992043501,3.0963124444,1081
88273,196400,207956,8.0219377665,-4.462614149,3.0652057506,1082
88325,196429,207950,8.0255270004,-4.4207397534999995,3.0089744195,1083
88320,196419,207915,8.1391860739,-4.5750768112,3.1489545415999998,1084
88329,196460,207954,7.9465638546,-4.5535414078,3.0891339766000003,1085
88379,196468,207932,7.940581798099999,-4.3585263658999995,3.2458638569,1086
88441,196474,207958,8.0219377665,-4.5260239479,3.1334011947,1087
88509,196513,207989,8.0590265168,-4.3800617693,3.1680971224,1088
88595,196497,208018,8.0219377665,-4.4733818507,3.0364918793999998,1089
88696,196528,207981,7.9298140964,-4.609772738899999,3.1429724850999996,1090
88810,196632,208003,7.9106715156,-4.4733818507,3.0269205889999995,1091
88908,196658,208062,8.0087772422,-4.5786660451,3.1130622026,1092
88823,196658,208050,8.062615750700001,-4.3920258823,3.1537401868,1093
88361,196570,208034,8.0482588151,-4.5200418914,3.1453653077,1094
87761,196420,207962,8.1272219609,-4.4578285038,3.1680971224,1095
87217,196339,207841,8.1128650253,-4.5643091095,3.1740791789,1096
86814,196194,207805,7.9501530885,-4.5248275366,3.1860432919,1097
86530,196164,207773,8.027919823,-4.5439701174,3.0556344602,1098
86493,196119,207776,8.0087772422,-4.4243289874,3.1226334930000004,1099
86520,196101,207784,8.0123664761,-4.5248275366,3.0161528873,1100
86592,196132,207785,8.0482588151,-4.4961136654,3.1154550251999997,1101
86608,196153,207789,7.992027484,-4.4937208428,3.0484559924,1102
86628,196151,207801,7.9393853868,-4.5164526575,3.0855447427,1103
86637,196136,207809,8.1212399044,-4.5738803999,3.1034909122000003,1104
86653,196139,207809,8.1200434931,-4.4063828179,3.1034909122000003,1105
86708,196133,207788,8.0374911134,-4.4111684631,3.1369904286000003,1106
86764,196196,207814,7.9369925642,-4.4087756405,3.1968109935999998,1107
86849,196232,207855,8.0339018795,-4.5200418914,3.11066938,1108
86958,196266,207843,7.8233334907000005,-4.4422751569,3.1274191382,1109
86993,196272,207833,7.984849016199999,-4.5320060043999995,3.1202406704,1110
87235,196341,207917,7.9381889755,-4.4578285038,3.0735806297,1111
87308,196352,207878,8.0721870411,-4.465006971599999,3.1202406704,1112
87396,196412,207914,8.0590265168,-4.5032921331999995,3.1322047834,1113
87227,196441,207935,8.084151154099999,-4.5798624564,3.0664021618999997,1114
86667,196306,207875,7.9633136127999995,-4.6037906824000006,2.9694928465999997,1115
85950,196188,207825,8.115257847899999,-4.4602213264,3.1980074049,1116
85452,196066,207741,7.9776705484,-4.3501514868,3.0723842184,1117
85122,195959,207661,7.9776705484,-4.5631126982,3.0652057506,1118
84992,195912,207699,8.0362947021,-4.3345981399,3.1788648241,1119
85000,195890,207662,8.0111700648,-4.4578285038,3.1501509529,1120
85097,195917,207621,8.063812162,-4.5631126982,3.0723842184,1121
85173,195921,207669,8.0135628874,-4.4458643908,3.1130622026,1122
85195,195930,207695,8.0207413552,-4.465006971599999,3.1202406704,1123
85211,195911,207694,7.992027484,-4.5726839886,2.9802605483,1124
85235,195921,207691,8.0303126456,-4.5176490688,3.1262227269,1125
85271,195922,207694,7.992027484,-4.4482572134,3.1489545415999998,1126
85337,195944,207688,7.992027484,-4.4051864066,3.1178478478000002,1127
85459,195967,207690,7.9178499834,-4.3848474145,3.098705267,1128
85552,196024,207643,7.9262248625,-4.5044885445,3.0939196218,1129
85715,196052,207733,8.0805619202,-4.4578285038,3.1046873235,1130
85829,196099,207796,7.9477602659,-4.6576291909,3.1537401868,1131
85943,196166,207802,7.911867926899999,-4.3836510032,3.134597606,1132
86057,196185,207845,8.0410803473,-4.4961136654,3.1226334930000004,1133
85838,196142,207784,7.972884903200001,-4.4350966891,3.0101708308,1134
85135,196036,207738,8.0793655089,-4.4422751569,3.0843483314,1135
84400,195826,207624,8.0793655089,-4.3776689467,3.0891339766000003,1136
83903,195659,207563,7.9884382501,-4.5906301581,3.0915267992,1137
83625,195604,207503,7.9489566772,-4.4697926167999995,3.0209385325,1138
83487,195513,207435,8.13559684,-4.4697926167999995,3.1393832512,1139
83510,195516,207427,7.992027484,-4.5176490688,3.1621150658999997,1140
83659,195539,207461,8.0422767586,-4.560719875599999,3.2362925665,1141
83768,195522,207520,8.027919823,-4.5403808835,3.182454058,1142
83846,195567,207468,8.1009009123,-4.4350966891,3.0376882907,1143
83877,195556,207474,7.9896346614,-4.4434715682,3.1058837348,1144
83912,195541,207470,8.0805619202,-4.4853459636999995,3.098705267,1145
84013,195606,207493,7.8807612331,-4.4015971727,3.2793633733,1146
84116,195568,207479,8.0697942185,-4.3860438258,2.9587251449000003,1147
84252,195623,207493,8.0733834524,-4.5056849558,3.1250263156,1148
84370,195627,207534,8.0315090569,-4.5068813671,3.0963124444,1149
84538,195683,207522,7.9453674433,-4.4327038665,3.0616165167,1150
84711,195749,207547,8.0542408716,-4.4542392699,3.1058837348,1151
84869,195737,207613,8.0231341778,-4.5391844722,3.1752755902,1152
84819,195773,207589,8.0111700648,-4.4566320925,3.1417760738,1153
84214,195677,207556,8.0566336942,-4.5966122146,3.1214370817,1154
83427,195462,207417,7.968099258,-4.438685923,3.1130622026,1155
82831,195277,207296,7.956135144999999,-4.4362931003999995,3.2243284535,1156
82427,195138,207246,8.0195449439,-4.4398823343,3.0400811133000003,1157
82358,195002,207185,8.044669581199999,-4.4889351976,3.2051858726999995,1158
82388,194988,207148,8.1188470818,-4.3944187049,3.0915267992,1159
82582,194971,207155,8.0386875247,-4.5176490688,3.0891339766000003,1160
82781,195026,207180,7.9740813145,-4.5032921331999995,3.1393832512,1161
82919,195072,207208,7.9884382501,-4.4937208428,3.1561330094,1162
83039,195053,207159,8.049455226400001,-4.4530428586,3.0747770410000004,1163
83140,195077,207225,7.9381889755,-4.4243289874,2.9934210726,1164
83271,195119,207217,7.7443703449,-4.4087756405,3.158525832,1165
83433,195128,207293,7.944171031999999,-4.4602213264,3.1561330094,1166
83587,195142,207264,8.0063844196,-4.4913280202,3.1082765574000004,1167
83796,195187,207330,8.057830105499999,-4.3286160834,3.0532416376,1168
83996,195251,207382,8.0004023631,-4.534398827,3.0723842184,1169
84207,195321,207389,8.1487573643,-4.4279182213,3.0257241777000004,1170
84432,195397,207371,7.932206919,-4.5631126982,3.1154550251999997,1171
84694,195414,207468,8.1104722027,-4.5367916496,3.1298119607999997,1172
84577,195433,207435,7.908278693,-4.465006971599999,3.0915267992,1173
83995,195317,207408,7.9896346614,-4.5726839886,2.9862426048,1174
83258,195107,207298,8.0339018795,-4.4602213264,3.1274191382,1175
82856,194895,207138,8.0805619202,-4.5020957219,3.1812576466999998,1176
82607,194781,207108,8.0662049846,-4.5690947547,3.1298119607999997,1177
82538,194710,207079,8.0123664761,-4.5200418914,3.182454058,1178
82655,194703,207034,8.1080793801,-4.4817567298,3.1022945009000003,1179
82875,194724,207071,8.0327054682,-4.4255253987,3.0221349438,1180
83162,194773,207093,7.9633136127999995,-4.6049870937,3.2123643404999997,1181
83303,194824,207143,7.972884903200001,-4.5080777784,3.1298119607999997,1182
83386,194829,207121,8.0350982908,-4.4327038665,3.1597222433,1183
83581,194864,207152,7.9393853868,-4.5056849558,3.0101708308,1184
83744,194878,207190,7.984849016199999,-4.486542375,3.134597606,1185
83931,194931,207188,8.0721870411,-4.4339002778,3.1334011947,1186
84113,194996,207217,8.0183485326,-4.6121655615,3.0293134116,1187
84348,195050,207316,8.063812162,-4.4183469309,3.0795626862,1188
84569,195097,207294,7.9836526049,-4.4339002778,3.11066938,1189
84792,195176,207341,8.1080793801,-4.5296131818,3.0257241777000004,1190
85022,195225,207417,7.9381889755,-4.3932222936,3.11066938,1191
85255,195315,207449,8.027919823,-4.5092741897,3.1082765574000004,1192
85477,195324,207483,8.0889367993,-4.4291146326,3.1274191382,1193
85543,195439,207515,8.057830105499999,-4.4410787456,3.0915267992,1194
85181,195268,207493,7.992027484,-4.5056849558,3.1884361145,1195
84634,195072,207415,7.928617685100001,-4.3704904789,3.1082765574000004,1196
84250,194870,207237,8.0015987744,-4.465006971599999,3.1513473642000003,1197
84042,194806,207172,8.0099736535,-4.4685962055,3.1980074049,1198
83991,194735,207192,8.049455226400001,-4.5152562462,3.1310083721,1199
84060,194779,207174,7.9908310727,-4.414757697,3.1130622026,1200
84226,194723,207143,8.0685978072,-4.582255279,3.0927232105,1201
84446,194782,207127,7.9166535721,-4.4398823343,3.1178478478000002,1202
84616,194796,207208,7.8783684105,-4.4087756405,3.0604201053999995,1203
84795,194893,207241,7.8412796602,-4.4889351976,3.1310083721,1204
84937,194875,207265,7.9824561936,-4.527220359199999,3.1118657913,1205
85091,194909,207265,7.9298140964,-4.492524431500001,3.1609186546,1206
85248,194961,207266,7.8999038139,-4.4685962055,3.1369904286000003,1207
85420,195006,207320,8.003991596999999,-4.4099720518000005,3.0580272828,1208
85616,195048,207348,8.0231341778,-4.4961136654,3.1178478478000002,1209
85845,195148,207382,7.925028451199999,-4.6013978598,3.1645078885,1210
86008,195229,207387,7.9872418388,-4.414757697,3.0723842184,1211
86206,195221,207443,7.992027484,-4.5308095931,3.1046873235,1212
86400,195288,207570,8.0554372829,-4.4554356812,3.2685956716,1213
86599,195408,207528,7.9633136127999995,-4.4997028993,3.038884702,1214
86823,195412,207583,8.111668614,-4.4123648744,3.1298119607999997,1215
86912,195478,207656,8.039883936,-4.5511485852,3.2087751066,1216
86666,195518,207666,7.9609207902,-4.5152562462,3.1022945009000003,1217
86317,195292,207556,7.9992059518000005,-4.3573299546,3.146561719,1218
85923,195139,207462,8.0434731699,-4.462614149,3.2027930501,1219
85707,194971,207380,7.9609207902,-4.54636294,3.0963124444,1220
85600,194933,207308,7.9752777258,-4.4949172541,3.1058837348,1221
85633,194938,207294,8.0231341778,-4.4015971727,3.0400811133000003,1222
85789,194931,207375,7.9393853868,-4.486542375,3.1369904286000003,1223
85876,194939,207354,8.0350982908,-4.4482572134,3.0532416376,1224
85999,194958,207406,8.0482588151,-4.4470608021,3.1274191382,1225
86078,195026,207397,8.0566336942,-4.510470601,3.1118657913,1226
86128,195019,207386,7.9872418388,-4.462614149,3.1130622026,1227
86237,195051,207418,7.925028451199999,-4.5080777784,3.1130622026,1228
86341,195065,207411,7.9453674433,-4.4087756405,3.1645078885,1229
86473,195123,207440,7.9298140964,-4.3944187049,3.1274191382,1230
86608,195167,207467,8.0913296219,-4.4339002778,3.1034909122000003,1231
86768,195219,207503,7.992027484,-4.4602213264,3.1154550251999997,1232
86921,195268,207507,7.9788669596999995,-4.4901316089,3.1561330094,1233
87104,195357,207509,8.061419339399999,-4.4853459636999995,3.2219356309,1234
87264,195378,207582,7.9896346614,-4.382454591899999,3.1322047834,1235
87351,195438,207623,8.1080793801,-4.5870409242,3.1812576466999998,1236
87138,195449,207621,8.027919823,-4.4697926167999995,3.1202406704,1237
86594,195255,207562,8.0135628874,-4.4279182213,3.1549365981,1238
86083,195020,207431,7.9489566772,-4.2795632201,3.1980074049,1239
85702,194859,207352,7.9549387337,-4.5332024157,3.1202406704,1240
85507,194752,207290,7.984849016199999,-4.5511485852,3.0484559924,1241
85366,194729,207278,8.026723411699999,-4.450650036,3.038884702,1242
85383,194732,207252,8.0458659925,-4.5643091095,3.1405796625,1243
85484,194745,207304,7.992027484,-4.5846481016,3.1489545415999998,1244
85558,194795,207240,7.970492080600001,-4.4303110439,3.1322047834,1245
85591,194783,207330,7.9896346614,-4.4087756405,3.1322047834,1246
85627,194795,207309,8.0123664761,-4.5056849558,3.1262227269,1247
85668,194863,207291,8.0015987744,-4.4769710846,3.134597606,1248
85745,194845,207345,7.896314579999999,-4.4422751569,3.0580272828,1249
85849,194906,207327,7.9872418388,-4.4602213264,3.0723842184,1250
85963,194937,207332,7.9585279676,-4.5236311253,3.134597606,1251
86138,194962,207442,7.8711899427,-4.4602213264,3.0963124444,1252
86236,195031,207388,7.8855468783,-4.4578285038,3.0915267992,1253
86375,195075,207459,8.0315090569,-4.4721854394000005,3.1956145822999997,1254
86523,195128,207483,8.0901332106,-4.5834516903,3.1010980895999998,1255
86494,195205,207513,8.0350982908,-4.6636112473999995,3.0675985732,1256
85967,195077,207456,7.874779176600001,-4.4997028993,3.038884702,1257
85223,194807,207330,7.9238320399,-4.3764725354000005,3.0795626862,1258
84559,194583,207185,8.0350982908,-4.4291146326,3.0807590974999997,1259
84127,194431,207130,8.0123664761,-4.6576291909,3.146561719,1260
83923,194324,207055,8.0410803473,-4.4231325760999995,3.1800612354,1261
83883,194253,207062,7.8592258297,-4.492524431500001,3.1130622026,1262
83955,194333,207044,7.992027484,-4.4231325760999995,3.2410782117,1263
84098,194347,207062,8.0255270004,-4.4805603185,3.2219356309,1264
84191,194357,207111,8.0075808309,-4.5870409242,3.0831519201,1265
84254,194420,207109,8.062615750700001,-4.5032921331999995,3.1716863562999995,1266
84312,194438,207119,7.9142607494999995,-4.4051864066,3.1130622026,1267
84401,194474,207132,8.057830105499999,-4.5798624564,3.1836504693,1268
84488,194524,207172,7.9764741371,-4.4350966891,3.1776684127999997,1269
84649,194560,207171,7.9645100241,-4.4697926167999995,3.1262227269,1270
84784,194560,207246,7.8592258297,-4.462614149,3.0675985732,1271
84951,194621,207273,7.9896346614,-4.5774696338,3.1262227269,1272
85126,194736,207333,7.9776705484,-4.4315074552,3.2602207924999997,1273
85310,194770,207321,7.9896346614,-4.5762732225,3.146561719,1274
85508,194824,207422,8.0386875247,-4.4494536247,3.1034909122000003,1275
85499,194920,207410,8.0829547428,-4.450650036,3.158525832,1276
85184,194892,207460,7.8687971201,-4.4841495524,3.0568308715,1277
84353,194621,207326,8.0590265168,-4.4470608021,3.1369904286000003,1278
83634,194369,207165,7.9166535721,-4.4482572134,3.0915267992,1279
83173,194187,207061,7.9298140964,-4.3489550755,3.1298119607999997,1280
82940,194094,207015,7.8987074025999995,-4.3968115275,3.1561330094,1281
82882,194046,206912,8.0111700648,-4.474578262,3.2051858726999995,1282
82989,194037,206980,7.9465638546,-4.4063828179,3.146561719,1283
83213,194079,207023,7.9788669596999995,-4.522434714,3.1214370817,1284
83374,194116,207006,7.9788669596999995,-4.5176490688,3.086741154,1285
83512,194173,207046,7.970492080600001,-4.4482572134,3.0723842184,1286
83573,194196,207057,7.861618652300001,-4.5140598349,3.1501509529,1287
83684,194201,207071,8.0602229281,-4.5032921331999995,3.1130622026,1288
83793,194233,207088,7.9262248625,-4.4578285038,3.2075786953,1289
83934,194287,207137,7.9226356286,-4.5200418914,3.1776684127999997,1290
84113,194359,207188,7.944171031999999,-4.5128634236,3.0963124444,1291
84321,194418,207197,7.9824561936,-4.4530428586,3.170489945,1292
84518,194498,207281,7.932206919,-4.5020957219,3.1728827676,1293
84670,194568,207293,7.9956167179,-4.450650036,3.2434710343,1294
84893,194623,207331,7.956135144999999,-4.4781674959,3.1680971224,1295
85097,194706,207404,8.0350982908,-4.4482572134,3.2410782117,1296
85202,194788,207416,7.8053873212000005,-4.582255279,3.1417760738,1297
84822,194741,207427,8.1344004287,-4.4602213264,2.9718856692,1298
84000,194495,207277,8.070990629799999,-4.4350966891,3.1154550251999997,1299
83230,194204,207140,8.01595571,-4.5008993106,3.1537401868,1300
82833,194004,206996,7.915457160799999,-4.4327038665,3.0819555088,1301
82655,193925,206952,7.8687971201,-4.510470601,3.1154550251999997,1302
82625,193881,206926,8.0147592987,-4.5032921331999995,3.1417760738,1303
82789,193844,206930,8.0231341778,-4.4554356812,3.1322047834,1304
83002,193941,206961,7.9884382501,-4.4697926167999995,3.086741154,1305
83196,193998,206967,7.8987074025999995,-4.5128634236,3.1130622026,1306
83289,194024,207003,7.9190463947000005,-4.5152562462,3.1453653077,1307
83426,194058,206996,7.9489566772,-4.5140598349,3.0855447427,1308
83547,194082,207034,8.0315090569,-4.4530428586,3.1070801461,1309
83681,194142,207082,7.9824561936,-4.5248275366,3.1154550251999997,1310
83815,194190,207104,7.9992059518000005,-4.5918265694,3.1776684127999997,1311
84052,194198,207122,7.9106715156,-4.5379880609,3.0412775246,1312
84215,194271,207154,7.8951181687,-4.589433746799999,3.1130622026,1313
84417,194346,207186,7.9776705484,-4.5511485852,3.1058837348,1314
84626,194445,207266,8.1391860739,-4.4279182213,3.1298119607999997,1315
84812,194494,207341,7.9345997416,-4.4219361648,3.0436703472,1316
85019,194573,207362,7.9106715156,-4.606183505,3.2051858726999995,1317
85219,194657,207471,8.0327054682,-4.5212383027000005,3.170489945,1318
85272,194750,207485,7.9525459111,-4.5056849558,3.194418171,1319
84832,194679,207441,7.9657064354,-4.5571306417,3.0604201053999995,1320
84090,194433,207314,8.1176506705,-4.4051864066,3.1489545415999998,1321
83500,194142,207206,8.0566336942,-4.6013978598,3.1716863562999995,1322
83219,194036,207067,8.0327054682,-4.4530428586,3.2386853891,1323
83120,193958,206999,7.8496545393,-4.4937208428,3.1429724850999996,1324
83141,193903,207015,7.9752777258,-4.4889351976,3.1310083721,1325
83354,193952,207041,7.9513494998,-4.4339002778,3.1609186546,1326
83564,194064,207024,7.911867926899999,-4.4937208428,3.1369904286000003,1327
83693,194042,207083,7.9477602659,-4.3657048337,3.2386853891,1328
83786,194094,207091,8.039883936,-4.5415772948,3.1034909122000003,1329
83878,194163,207109,7.9992059518000005,-4.5176490688,3.0699913958000002,1330
83965,194174,207148,7.915457160799999,-4.4494536247,3.1286155494999996,1331
84085,194167,207138,8.01595571,-4.4901316089,3.2135607518000002,1332
84233,194242,207152,7.861618652300001,-4.5032921331999995,3.0939196218,1333
84411,194257,207182,7.9944203065999995,-4.4709890281,3.0652057506,1334
84588,194374,207247,7.9513494998,-4.5439701174,3.1561330094,1335
84763,194416,207276,7.9489566772,-4.4004007614,3.2075786953,1336
84953,194499,207345,7.9549387337,-4.5320060043999995,3.1537401868,1337
85139,194555,207371,8.062615750700001,-4.606183505,3.2147571631,1338
85364,194606,207445,8.1463645417,-4.5176490688,3.2279176874,1339
85333,194687,207452,7.8771719992,-4.5535414078,3.134597606,1340
84814,194562,207386,7.9752777258,-4.5750768112,3.086741154,1341
84078,194301,207269,8.0434731699,-4.4315074552,3.0723842184,1342
83537,194021,207105,8.0255270004,-4.4757746733,3.1728827676,1343
83223,193883,207030,8.0255270004,-4.5511485852,3.1369904286000003,1344
83107,193847,206968,8.0817583315,-4.3680976563,3.038884702,1345
83139,193815,206950,7.908278693,-4.3740797127999995,3.0173492985999997,1346
83311,193829,206963,8.003991596999999,-4.5762732225,3.1848468806000003,1347
83495,193926,206988,8.0853475654,-4.4015971727,3.1657042998000002,1348
83625,193924,206996,8.0350982908,-4.589433746799999,3.2135607518000002,1349
83657,193963,207037,7.980063371,-4.5882373355,3.1812576466999998,1350
83811,193958,207024,7.8341011924,-4.5559342304,3.2195428083000004,1351
83893,194023,207038,8.0674013959,-4.5068813671,3.1740791789,1352
84014,194024,207081,7.980063371,-4.3992043501,3.1453653077,1353
84159,194092,207083,8.147560953,-4.5559342304,3.1501509529,1354
84321,194125,207119,7.927421273799999,-4.4374895117,3.158525832,1355
84497,194200,207192,7.9752777258,-4.5870409242,3.0699913958000002,1356
84683,194302,207205,7.8975109913,-4.4183469309,3.0855447427,1357
84880,194367,207248,7.927421273799999,-4.5858445129,3.1489545415999998,1358
85037,194397,207294,8.084151154099999,-4.5523449965,3.0963124444,1359
85007,194512,207379,7.9776705484,-4.4841495524,2.9802605483,1360
84424,194312,207254,7.8939217574,-4.4578285038,3.1070801461,1361
83650,194036,207149,7.9310105077,-4.5320060043999995,3.1884361145,1362
83023,193768,206975,7.9968131291999995,-4.4733818507,3.1932217597,1363
82701,193589,206891,8.0075808309,-4.5008993106,3.2004002275,1364
82551,193483,206800,7.9788669596999995,-4.465006971599999,3.2027930501,1365
82586,193475,206788,7.9226356286,-4.4889351976,3.1621150658999997,1366
82753,193447,206803,8.0470624038,-4.5954158033,3.134597606,1367
82951,193530,206815,7.9752777258,-4.54636294,3.1393832512,1368
83130,193559,206797,8.074579863699999,-4.4685962055,3.1513473642000003,1369
83230,193608,206877,8.003991596999999,-4.4315074552,3.0699913958000002,1370
83337,193659,206895,7.9046894591,-4.510470601,3.0879375653000003,1371
83497,193686,206918,7.9226356286,-4.5296131818,3.1692935337,1372
83629,193717,206894,7.9776705484,-4.5284167705,3.1920253483999996,1373
83788,193760,206925,8.0817583315,-4.5140598349,3.0915267992,1374
83967,193835,206976,8.0075808309,-4.4793639072,3.1118657913,1375
84175,193971,207060,8.0147592987,-4.4255253987,3.1872397032,1376
84376,194034,207105,8.0015987744,-4.4889351976,3.0484559924,1377
84573,194085,207202,7.9872418388,-4.4542392699,3.2159535744,1378
84780,194168,207207,7.9609207902,-4.5391844722,3.1908289370999996,1379
84873,194282,207316,7.9178499834,-4.5631126982,3.1130622026,1380
84403,194180,207256,7.861618652300001,-4.5391844722,3.0436703472,1381
83588,193892,207098,8.0374911134,-4.3680976563,3.1214370817,1382
82925,193556,206907,7.9633136127999995,-4.3728833015,3.1728827676,1383
82543,193387,206840,8.057830105499999,-4.5379880609,3.0915267992,1384
82378,193240,206757,8.0207413552,-4.5044885445,3.1836504693,1385
82401,193215,206713,7.9609207902,-4.5511485852,3.1082765574000004,1386
82581,193279,206682,7.8664042975,-4.4913280202,3.1178478478000002,1387
82805,193316,206752,8.0135628874,-4.4913280202,3.1298119607999997,1388
83004,193344,206739,7.9393853868,-4.3609191885,3.1154550251999997,1389
83149,193423,206799,8.0231341778,-4.5296131818,3.0819555088,1390
83256,193493,206858,7.9046894591,-4.4135612857,3.1453653077,1391
83388,193545,206905,7.8496545393,-4.5128634236,3.0915267992,1392
83553,193572,206921,7.9465638546,-4.6085763276,3.1178478478000002,1393
83714,193624,206964,8.0662049846,-4.4841495524,3.1058837348,1394
83900,193696,206998,7.9908310727,-4.5056849558,3.0771698636,1395
84102,193799,207063,8.0590265168,-4.4434715682,3.0699913958000002,1396
84297,193892,207094,8.13559684,-4.5128634236,3.1310083721,1397
84541,193979,207164,8.0111700648,-4.522434714,3.134597606,1398
84732,194061,207205,8.0027951857,-4.4841495524,3.2027930501,1399
84949,194107,207318,7.968099258,-4.4817567298,3.0963124444,1400
85107,194258,207362,8.01595571,-4.5391844722,3.2542387359999996,1401
84870,194255,207367,8.0099736535,-4.570291166,3.1573294206999996,1402
84097,193977,207186,8.0063844196,-4.5451665287,3.1334011947,1403
83357,193651,207039,7.9489566772,-4.4614177377,3.158525832,1404
82884,193451,206908,7.9489566772,-4.5511485852,3.134597606,1405
82690,193316,206854,7.9657064354,-4.5631126982,3.1310083721,1406
82649,193282,206786,7.9214392173,-4.3417766077,3.0771698636,1407
82772,193289,206778,7.9764741371,-4.5200418914,3.218346397,1408
83002,193300,206841,8.061419339399999,-4.5750768112,3.134597606,1409
83180,193411,206841,8.1583286547,-4.5846481016,3.1322047834,1410
83334,193424,206868,7.9345997416,-4.415954108299999,3.1322047834,1411
83457,193440,206903,7.9932238953,-4.4207397534999995,3.2171499857,1412
83566,193522,206907,8.003991596999999,-4.5990050372,3.1609186546,1413
83685,193563,206972,7.9585279676,-4.4781674959,3.1920253483999996,1414
83844,193599,207015,7.984849016199999,-4.534398827,3.1680971224,1415
84001,193677,207044,7.8664042975,-4.5200418914,3.1633114771999997,1416
84204,193776,207102,7.9453674433,-4.4362931003999995,3.170489945,1417
84386,193851,207164,7.9226356286,-4.5738803999,3.1633114771999997,1418
84582,193897,207184,7.956135144999999,-4.558327053,3.2159535744,1419
84817,194032,207266,7.9992059518000005,-4.510470601,3.194418171,1420
85036,194010,207334,7.8532437732,-4.486542375,3.2051858726999995,1421
85245,194198,207350,8.0075808309,-4.5655055207999995,3.1645078885,1422
85386,194288,207406,8.026723411699999,-4.5750768112,3.1812576466999998,1423
85147,194269,207422,7.9513494998,-4.582255279,3.1082765574000004,1424
84438,194052,207294,7.9884382501,-4.474578262,3.1812576466999998,1425
83734,193761,207107,7.9310105077,-4.4004007614,3.146561719,1426
83300,193506,206988,7.9453674433,-4.4207397534999995,3.1848468806000003,1427
83098,193386,206891,7.8173514342,-4.4841495524,3.0448667585,1428
83072,193382,206896,7.9609207902,-4.534398827,3.134597606,1429
83169,193373,206844,8.0063844196,-4.4769710846,3.1274191382,1430
83390,193441,206916,7.9824561936,-4.5296131818,3.1609186546,1431
83563,193486,206964,8.017152121299999,-4.4937208428,3.2482566795000003,1432
83688,193533,206974,8.0685978072,-4.5415772948,3.1908289370999996,1433
83795,193574,206989,7.8173514342,-4.4817567298,2.9874390161,1434
83871,193606,207074,7.9513494998,-4.5044885445,3.158525832,1435
83996,193647,207045,8.026723411699999,-4.5008993106,3.1298119607999997,1436
84113,193699,207096,7.9836526049,-4.450650036,3.1166514365,1437
84296,193785,207126,7.8999038139,-4.4638105603,3.1226334930000004,1438
84452,193837,207185,8.003991596999999,-4.5248275366,3.1322047834,1439
84644,193914,207222,7.953742322399999,-4.5559342304,3.0699913958000002,1440
84825,193950,207250,7.9872418388,-4.5930229807,3.1657042998000002,1441
85007,194060,207309,7.9238320399,-4.5798624564,3.1645078885,1442
85190,194132,207418,8.1308111948,-4.3848474145,3.2135607518000002,1443
85353,194210,207428,7.9501530885,-4.5200418914,3.2398818003999996,1444
85153,194206,207441,7.9932238953,-4.492524431500001,3.0029923629999997,1445
84489,193997,207314,8.0793655089,-4.4566320925,3.1190442591,1446
83795,193722,207178,7.9357961529,-4.4721854394000005,3.1202406704,1447
83421,193507,207027,7.9836526049,-4.4470608021,3.1441688964,1448
83188,193395,206973,8.026723411699999,-4.5176490688,3.0963124444,1449
83154,193342,206934,8.0422767586,-4.4374895117,3.146561719,1450
83296,193361,206956,7.9585279676,-4.4817567298,3.2386853891,1451
83468,193429,206998,8.1415788965,-4.5858445129,3.1310083721,1452
83635,193505,206997,8.0374911134,-4.5128634236,3.1549365981,1453
83728,193497,207008,7.927421273799999,-4.4913280202,3.182454058,1454
83789,193515,207048,8.063812162,-4.319044793,3.1322047834,1455
83901,193569,207066,8.0231341778,-4.4255253987,3.1417760738,1456
84031,193652,207067,8.0530444603,-4.4470608021,3.1980074049,1457
84144,193664,207088,8.0147592987,-4.4817567298,3.086741154,1458
84301,193769,207146,7.932206919,-4.5631126982,3.1836504693,1459
84488,193779,207189,8.0339018795,-4.4350966891,3.134597606,1460
84651,193901,207243,7.9633136127999995,-4.3776689467,3.1657042998000002,1461
84804,193963,207311,8.0793655089,-4.510470601,3.1477581302999997,1462
84975,194019,207351,7.8915289348,-4.5367916496,3.1154550251999997,1463
85118,194093,207407,8.061419339399999,-4.6911287073,3.2255248647999997,1464
84807,194069,207406,7.9764741371,-4.3968115275,3.0580272828,1465
84020,193776,207261,7.927421273799999,-4.4243289874,3.170489945,1466
83302,193490,207078,8.1104722027,-4.4231325760999995,3.1800612354,1467
82829,193286,206949,8.0386875247,-4.3920258823,3.1525437755,1468
82631,193109,206880,8.0004023631,-4.5236311253,3.1166514365,1469
82542,193055,206861,8.026723411699999,-4.5750768112,3.1800612354,1470
82647,193076,206837,8.1200434931,-4.5320060043999995,3.1513473642000003,1471
82855,193136,206855,7.925028451199999,-4.5355952383,3.1357940173,1472
83028,193192,206893,8.0195449439,-4.4961136654,3.2267212761,1473
83145,193276,206921,8.0506516377,-4.4219361648,3.1752755902,1474
83240,193281,206952,7.968099258,-4.4111684631,3.1956145822999997,1475
83349,193327,206941,7.9752777258,-4.547559351299999,3.1908289370999996,1476
83476,193366,207005,8.0291162343,-4.474578262,3.0484559924,1477
83638,193423,207066,7.915457160799999,-4.4339002778,3.1597222433,1478
83807,193498,207083,8.0231341778,-4.4578285038,3.1633114771999997,1479
83993,193538,207136,7.9585279676,-4.5559342304,3.1058837348,1480
84235,193649,207174,8.0374911134,-4.4877387863000004,3.1058837348,1481
84412,193736,207262,7.980063371,-4.510470601,3.1752755902,1482
84559,193823,207309,7.9776705484,-4.3657048337,3.1250263156,1483
84699,193911,207347,7.992027484,-4.4913280202,3.1070801461,1484
84138,193799,207272,7.9752777258,-4.4434715682,3.0556344602,1485
83272,193452,207104,8.0027951857,-4.4973100767,3.0604201053999995,1486
82612,193120,206964,7.992027484,-4.5152562462,3.2015966388,1487
82221,192928,206820,8.102097323599999,-4.5308095931,3.0783662749,1488
82051,192808,206764,8.0015987744,-4.5415772948,3.1238299043,1489
82073,192806,206756,8.062615750700001,-4.4315074552,3.1597222433,1490
82240,192838,206727,7.9669028467,-4.6277189084,3.1381868399,1491
82483,192866,206794,7.932206919,-4.5032921331999995,3.2123643404999997,1492
82688,192941,206833,8.063812162,-4.4171505196,3.194418171,1493
82821,193000,206863,8.0111700648,-4.4721854394000005,3.1537401868,1494
82955,193019,206869,7.9345997416,-4.5128634236,3.0652057506,1495
83096,193067,206935,8.0099736535,-4.4973100767,3.0592236941,1496
83261,193174,206957,7.9824561936,-4.5128634236,3.1776684127999997,1497
83430,193229,207015,7.8915289348,-4.4434715682,3.0771698636,1498
83623,193293,207050,7.908278693,-4.5655055207999995,3.0891339766000003,1499
83814,193421,207084,7.9716884919,-4.5128634236,3.2015966388,1500
84040,193509,207146,8.0027951857,-4.4171505196,3.2243284535,1501
84249,193576,207244,7.8305119585,-4.474578262,3.1393832512,1502
84467,193662,207303,8.0697942185,-4.5032921331999995,3.1130622026,1503
84683,193750,207324,8.099704501,-4.4721854394000005,3.1561330094,1504
84560,193795,207363,7.9525459111,-4.5415772948,3.1764720014999996,1505
83858,193590,207271,8.1128650253,-4.4530428586,3.1513473642000003,1506
83059,193220,207053,7.9896346614,-4.4721854394000005,3.1633114771999997,1507
82511,192974,206898,8.0075808309,-4.4638105603,3.2554351473,1508
82242,192787,206813,8.099704501,-4.570291166,3.1489545415999998,1509
82156,192683,206754,7.992027484,-4.4889351976,3.0173492985999997,1510
82255,192730,206758,7.8568330071,-4.5056849558,3.1322047834,1511
82490,192773,206791,7.8436724828,-4.5020957219,3.1549365981,1512
82746,192843,206815,7.9633136127999995,-4.5248275366,3.1489545415999998,1513
82903,192950,206866,7.908278693,-4.5439701174,3.1872397032,1514
83027,192981,206905,7.984849016199999,-4.382454591899999,3.0939196218,1515
83142,193013,206954,7.953742322399999,-4.4961136654,3.2315069213,1516
83359,193050,206962,7.927421273799999,-4.5559342304,3.1417760738,1517
83469,193105,206996,7.972884903200001,-4.4231325760999995,3.1094729686999996,1518
